time,accel_x,accel_y,accel_z,gyro_p,gyro_q,gyro_r,pos_x,pos_y,pos_z,vel_x,vel_y,vel_z,att_phi,att_theta,att_psi,rate_p,rate_q,rate_r,OF_time,flow_x, flow_y,flow_der_x, flow_der_y, div_size, div,noise, fps,cmd_thrust,cmd_roll,cmd_pitch,cmd_yaw,rpm1_abi,rpm2_abi,rpm3_abi,rpm4_abi,num_act,body_vel_x,body_vel_y,body_vel_z,motor_comm_1,motor_comm_2,motor_comm_3,motor_comm_4
62.312080,5238,12230,-11163,-10483,-237,-1983,0.109375,0.476562,-1.578125,0.000000,0.000000,0.009998,-0.075928,-0.002930,-0.577393,-2.510498,0.031494,-0.523926,0,0,0,0,0,0.000000,0.006336,0.000000,0.000000,5478,726,194,640,0,0,0,0,0,0.000029,-0.000760,0.009968,6448,4781,5147,5534
62.321846,779,10033,-13540,6693,37,448,0.109375,0.476562,-1.578125,0.039999,0.000000,-0.009998,-0.065918,-0.002197,-0.575439,1.682861,0.098389,0.069580,0,0,0,0,0,0.000000,-0.006336,0.000000,0.000000,5461,-499,173,496,8413,7745,8002,7539,4,0.033533,0.022382,-0.008623,5478,5688,5939,4737
62.331596,-3754,-10903,-15615,7741,-438,2295,0.109375,0.476562,-1.578125,0.039999,0.000000,-0.009998,-0.070801,-0.002686,-0.575684,1.938721,-0.017578,0.520508,62324006,2,-1,25,0,0.000190,-0.006336,0.250000,0.000000,5463,-536,243,539,8369,7800,8043,7454,4,0.033518,0.022436,-0.008527,5525,5744,5939,4642
62.341370,-1952,-5191,-15298,-8219,-472,-427,0.109375,0.476562,-1.578125,0.039999,0.000000,-0.009998,-0.078613,-0.002930,-0.577148,-1.957764,-0.025879,-0.144043,62337680,0,0,8,0,-0.000068,-0.006336,0.250000,76.923073,5466,576,246,622,8307,7824,8109,7435,4,0.033492,0.022550,-0.008359,6358,4921,5195,5388
62.351143,3553,18062,-10342,-6617,-429,-2231,0.109375,0.476562,-1.578125,0.039999,0.000000,-0.009998,-0.070068,-0.002930,-0.576172,-1.566650,-0.015381,-0.584473,62351460,3,0,-4,1,0.000635,-0.006336,0.250000,76.923073,5462,415,240,544,8349,7803,8038,7435,4,0.033509,0.022446,-0.008550,6197,5066,5270,5313
62.360897,1201,3879,-7541,7981,-139,1761,0.109375,0.476562,-1.578125,-0.009998,0.019999,0.000000,-0.067139,-0.002441,-0.574463,1.997314,0.055420,0.390137,62351460,3,0,-4,1,0.000635,0.000000,0.250000,76.923073,5468,-573,164,444,8358,7800,8037,7463,4,-0.019262,0.011324,0.000812,5400,5767,5979,4724
62.370667,-2979,-22531,-12470,3548,-396,1852,0.109375,0.476562,-1.578125,-0.009998,0.019999,0.000000,-0.075684,-0.002197,-0.576172,0.915039,-0.007324,0.412354,62364968,1,0,-2,0,0.000295,0.000000,0.250000,76.923073,5473,-226,195,534,8280,7790,8058,7499,4,-0.019278,0.011285,0.000898,5718,5503,5761,4908
62.380432,-343,1304,-14057,-8676,-265,-1423,0.109375,0.476562,-1.578125,-0.009998,0.019999,0.000000,-0.073730,-0.002197,-0.576172,-2.069336,0.024658,-0.387207,62376723,-1,0,-19,-1,-0.000078,0.000000,0.250000,90.909088,5471,578,179,538,8238,7811,8092,7511,4,-0.019281,0.011283,0.000880,6275,4919,5204,5484
62.390190,-1064,18190,-10565,-54,-54,-945,0.109375,0.476562,-1.578125,0.019999,0.009998,0.000000,-0.065430,-0.001953,-0.574707,0.035645,0.076172,-0.270508,62376723,-1,0,-19,-1,-0.000078,0.000000,0.250000,90.909088,5468,-48,169,444,8269,7784,8032,7532,4,0.011347,0.019225,0.001238,5775,5399,5604,5092
62.399956,-1446,-9331,-13057,9077,-669,2077,0.109375,0.476562,-1.578125,0.019999,0.009998,0.000000,-0.069092,-0.002197,-0.574707,2.264893,-0.073975,0.467285,62392306,1,0,8,0,-0.000590,0.000000,0.250000,66.666672,5469,-636,257,439,8317,7819,8020,7535,4,0.011348,0.019218,0.001304,5420,5880,5956,4618
62.409729,1689,-17162,-12169,-1161,-276,780,0.109375,0.476562,-1.578125,0.019999,0.009998,0.000000,-0.073730,-0.002441,-0.576660,-0.234619,0.021973,0.150635,62404037,2,0,14,0,0.000277,0.000000,0.250000,90.909088,5471,73,204,563,8246,7818,8020,7529,4,0.011309,0.019235,0.001392,5948,5282,5556,5096
62.419502,-517,15941,-9265,-8369,-115,-2077,0.109375,0.476562,-1.578125,0.019999,0.009998,0.000000,-0.068359,-0.002197,-0.576172,-1.994385,0.061279,-0.546875,62417769,-1,0,-3,0,0.000100,0.000000,0.250000,76.923073,5468,525,182,537,8259,7855,8042,7459,4,0.011319,0.019239,0.001289,6236,4956,5236,5442
62.429256,-2903,7134,-8524,5374,-224,680,0.109375,0.476562,-1.578125,0.000000,0.019999,0.019999,-0.063232,-0.001709,-0.574707,1.360840,0.034668,0.126221,62417769,-1,0,-3,0,0.000100,0.012672,0.250000,76.923073,5480,-424,178,435,8284,7794,7982,7524,4,-0.010834,0.015482,0.021037,5523,5688,5871,4836
62.439018,559,-22548,-7941,5871,-717,2369,0.109375,0.476562,-1.578125,0.000000,0.019999,0.019999,-0.071045,-0.001953,-0.575684,1.482178,-0.085693,0.538574,62432113,-2,0,-18,0,-0.000675,0.012672,0.250000,71.428566,5483,-423,247,489,8287,7806,8059,7511,4,-0.010848,0.015309,0.021158,5603,5712,5851,4764
62.448795,3511,-1088,-15095,-8190,296,-1174,0.109375,0.476562,-1.578125,0.000000,0.019999,0.019999,-0.074463,-0.001465,-0.577148,-1.950684,0.161621,-0.326416,62444996,3,0,-7,-1,0.000640,0.012672,0.250000,83.333336,5484,539,103,567,8253,7910,8117,7483,4,-0.010883,0.015221,0.021207,6221,4892,5313,5508
62.458565,-3651,21351,-7602,-3914,-191,-1078,0.109375,0.476562,-1.578125,0.000000,0.009998,0.019999,-0.068604,-0.001221,-0.575439,-0.906738,0.042725,-0.302979,62458703,0,0,19,0,-0.000012,0.012672,0.250000,76.923073,5482,222,169,467,8289,7809,8052,7536,4,-0.005418,0.006991,0.020534,5991,5211,5439,5285
62.468315,-1498,-9559,-13025,8310,-298,1979,0.109375,0.476562,-1.578125,0.000000,0.009998,0.019999,-0.070068,-0.000977,-0.575195,2.077637,0.016602,0.443359,62458703,0,0,19,0,-0.000012,0.012672,0.250000,76.923073,5482,-589,182,442,8303,7747,8019,7578,4,-0.005420,0.006963,0.020543,5415,5806,5990,4715
62.478081,-380,-12245,-14751,-7347,-490,-529,0.109375,0.476562,-1.578125,0.000000,0.009998,0.019999,-0.079834,-0.001221,-0.577148,-1.744873,-0.030273,-0.168945,62470528,1,0,14,-1,0.000545,0.012672,0.250000,90.909088,5487,522,208,616,8270,7791,8055,7567,4,-0.005432,0.006752,0.020609,6311,4956,5278,5401
62.487858,-416,14067,-8203,-2981,-527,-1830,0.109375,0.476562,-1.578125,0.029999,0.000000,0.009998,-0.072998,-0.000977,-0.576416,-0.678955,-0.039307,-0.486572,62486694,-7,0,-5,0,-0.000178,0.006336,0.250000,62.499996,5477,185,231,638,8300,7770,8016,7563,4,0.025159,0.015582,0.011136,6090,5190,5501,5125
62.497616,517,7198,-8027,4727,8,520,0.109375,0.476562,-1.578125,0.029999,0.000000,0.009998,-0.072021,-0.000732,-0.575684,1.202881,0.091309,0.087158,62486694,-7,0,-5,0,-0.000178,0.006336,0.250000,62.499996,5476,-357,157,542,8371,7739,8024,7558,4,0.025170,0.015572,0.011126,5605,5568,5888,4841
62.507381,-2624,-13510,-17049,7719,-178,2462,0.109375,0.476562,-1.578125,0.029999,0.000000,0.009998,-0.078125,-0.001221,-0.576660,1.933350,0.045898,0.561279,62499763,-2,0,-25,-1,-0.000125,0.006336,0.250000,76.923073,5479,-519,186,607,8329,7756,8054,7522,4,0.025157,0.015527,0.011212,5547,5673,6017,4677
62.517151,-2759,954,-14668,-8068,-854,-756,0.109375,0.476562,-1.578125,0.029999,0.000000,0.009998,-0.083252,-0.001465,-0.577148,-1.920898,-0.119141,-0.224365,62513406,-6,0,10,0,-0.000559,0.006336,0.250000,76.923073,5481,569,278,655,8375,7759,8085,7468,4,0.025151,0.015485,0.011287,6407,4947,5209,5359
62.526943,1442,18403,-5633,-5838,-475,-1767,0.109375,0.476562,-1.578125,0.000000,0.000000,0.000000,-0.074463,-0.001221,-0.575684,-1.376465,-0.026611,-0.471191,62527119,3,0,12,0,0.000195,0.000000,0.250000,76.923073,5470,370,209,557,8393,7755,8072,7501,4,0.000000,0.000000,0.000000,6157,5077,5339,5305
62.536690,1476,-2106,-3222,7828,-217,2064,0.109375,0.476562,-1.578125,0.000000,0.000000,0.000000,-0.074951,-0.000977,-0.574219,1.959961,0.036377,0.464111,62527119,3,0,12,0,0.000195,0.000000,0.250000,76.923073,5471,-541,175,451,8384,7729,8039,7522,4,0.000000,0.000000,0.000000,5437,5751,5955,4739
62.546440,-4017,-16883,-13314,2890,-575,1512,0.109375,0.476562,-1.578125,0.000000,0.000000,0.000000,-0.084961,-0.001221,-0.575928,0.754395,-0.051025,0.329346,62540830,-3,0,9,0,0.000187,0.000000,0.250000,76.923073,5476,-154,224,544,8308,7813,8067,7501,4,0.000000,0.000000,0.000000,5797,5471,5698,4936
62.556210,-1211,9510,-9052,-10237,-799,-1843,0.109375,0.476562,-1.578125,0.019999,0.019999,0.009998,-0.081299,-0.001953,-0.575928,-2.450439,-0.105713,-0.489746,62554431,-4,0,-12,-1,-0.000089,0.006336,0.250000,76.923073,5479,693,265,566,8318,7802,8048,7487,4,0.005896,0.026761,0.012197,6439,4893,5084,5498
62.565971,1768,10256,-8596,1475,-71,-573,0.109375,0.476562,-1.578125,0.019999,0.019999,0.009998,-0.075195,-0.001709,-0.574219,0.408936,0.072021,-0.179688,62554431,-4,0,-12,-1,-0.000089,0.006336,0.250000,76.923073,5477,-124,166,462,8342,7790,8011,7544,4,0.005940,0.026824,0.012032,5737,5451,5678,5040
62.575737,1459,-7605,-12681,8957,-433,2515,0.109375,0.476562,-1.578125,0.019999,0.019999,0.009998,-0.079346,-0.001953,-0.574219,2.235596,-0.016357,0.574219,62568087,-7,0,-21,0,0.000007,0.006336,0.250000,76.923073,5478,-594,216,465,8335,7799,7978,7559,4,0.005944,0.026775,0.012147,5443,5818,5977,4672
62.585506,-1626,-12892,-14266,-5821,-278,-156,0.109375,0.476562,-1.578125,0.019999,0.019999,0.009998,-0.084961,-0.002197,-0.576416,-1.372314,0.021484,-0.077881,62581755,3,0,18,1,0.000011,0.006336,0.250000,76.923073,5481,427,197,593,8294,7832,8019,7523,4,0.005889,0.026716,0.012296,6218,5021,5336,5347
62.595291,833,11352,-8691,-7685,-514,-1835,0.109375,0.476562,-1.578125,-0.009998,0.000000,0.009998,-0.080322,-0.002441,-0.575439,-1.827393,-0.036133,-0.487793,62595430,-1,0,9,0,0.000108,0.006336,0.250000,76.923073,5479,536,221,531,8301,7797,7996,7529,4,-0.008362,-0.006228,0.009550,6279,4990,5209,5436
62.605034,2244,3612,-8564,7748,-213,991,0.109375,0.476562,-1.578125,-0.009998,0.000000,0.009998,-0.074219,-0.002197,-0.573975,1.940430,0.037354,0.202148,62595430,-1,0,9,0,0.000108,0.006336,0.250000,76.923073,5476,-529,179,438,8389,7767,7998,7529,4,-0.008373,-0.006158,0.009586,5447,5757,5942,4756
62.614799,-711,-15715,-10214,3788,-590,1691,0.109375,0.476562,-1.578125,-0.009998,0.000000,0.009998,-0.082275,-0.002686,-0.575439,0.973633,-0.054688,0.373047,62609131,1,-1,2,0,0.000121,0.006336,0.250000,76.923073,5480,-217,234,516,8333,7778,8015,7554,4,-0.008360,-0.006248,0.009540,5750,5540,5725,4903
62.624580,1778,-3195,-9962,-8757,-379,-1089,0.109375,0.476562,-1.578125,0.000000,0.049999,0.009998,-0.084961,-0.002686,-0.576416,-2.089111,-0.003174,-0.305664,62620774,-1,0,-1,0,-0.000025,0.006336,0.250000,90.909088,5481,623,192,576,8331,7837,7993,7526,4,-0.027230,0.040907,0.013599,6345,4888,5192,5497
62.634342,-1451,16350,-8500,-823,-239,-1401,0.109375,0.476562,-1.578125,0.000000,0.049999,0.009998,-0.075195,-0.002686,-0.575195,-0.152100,0.031006,-0.381836,62634439,3,0,-20,0,-0.000606,0.006336,0.250000,76.923073,5477,34,174,495,8301,7790,8022,7529,4,-0.027179,0.041072,0.013195,5871,5328,5577,5130
62.644096,-2619,1363,-3779,6654,-551,1619,0.109375,0.476562,-1.578125,0.000000,0.049999,0.009998,-0.075684,-0.002930,-0.574707,1.673340,-0.045166,0.355469,62634439,3,0,-20,0,-0.000606,0.006336,0.250000,76.923073,5477,-456,220,475,8350,7774,8015,7514,4,-0.027158,0.041073,0.013222,5547,5717,5881,4761
62.653870,2101,-15563,-8539,-996,-810,1107,0.109375,0.476562,-1.578125,0.019999,-0.019999,0.009998,-0.083496,-0.003418,-0.576416,-0.194336,-0.108398,0.230469,62648131,0,0,7,0,-0.000010,0.006336,0.250000,76.923073,5480,119,292,569,8291,7834,8044,7531,4,0.027701,-0.006673,0.009376,6055,5317,5473,5073
62.663635,6342,7315,-9758,-7196,-117,-1861,0.109375,0.476562,-1.578125,0.019999,-0.019999,0.009998,-0.078369,-0.003662,-0.576416,-1.708008,0.060791,-0.494141,62661847,3,0,6,0,0.000131,0.006336,0.250000,76.923073,5478,502,200,560,8315,7840,8035,7502,4,0.027703,-0.006624,0.009406,6254,4984,5261,5411
62.673397,-2347,14518,-9221,3628,106,250,0.109375,0.476562,-1.578125,0.019999,-0.019999,0.009998,-0.073730,-0.003174,-0.574707,0.934570,0.115234,0.021240,62661847,3,0,6,0,0.000131,0.006336,0.250000,76.923073,5476,-243,165,522,8386,7817,8032,7466,4,0.027688,-0.006624,0.009448,5681,5503,5792,4926
62.683163,-3399,-14511,-11112,5389,-590,2164,0.109375,0.476562,-1.578125,0.019999,-0.019999,0.009998,-0.080811,-0.003418,-0.575684,1.364502,-0.054688,0.488525,62676181,0,0,8,0,0.000021,0.006336,0.250000,71.428566,5479,-320,264,589,8376,7784,8007,7528,4,0.027698,-0.006665,0.009389,5733,5597,5813,4771
62.692928,887,-8426,-15092,-5825,-481,-645,0.109375,0.476562,-1.578125,0.019999,0.019999,0.009998,-0.081299,-0.003906,-0.576416,-1.373291,-0.028076,-0.197266,62689200,-1,0,-12,1,-0.000361,0.006336,0.250000,76.923073,5479,421,238,644,8356,7807,8033,7458,4,0.005902,0.026765,0.012190,6266,5027,5335,5286
62.702705,2219,21353,-10244,-5222,-196,-1606,0.109375,0.476562,-1.578125,0.019999,0.019999,0.009998,-0.073486,-0.003174,-0.575439,-1.226074,0.041504,-0.431885,62700912,-3,0,-18,0,0.000400,0.006336,0.250000,90.909088,5475,337,194,566,8352,7802,8056,7446,4,0.005928,0.026852,0.011986,6133,5090,5382,5293
62.712456,26,2786,-8841,6991,61,1710,0.109375,0.476562,-1.578125,0.019999,0.019999,0.009998,-0.073242,-0.002686,-0.573975,1.755615,0.104248,0.377686,62700912,-3,0,-18,0,0.000400,0.006336,0.250000,90.909088,5477,-478,156,477,8377,7781,8046,7498,4,0.005957,0.026843,0.011976,5487,5686,5943,4790
62.722221,-2072,-21935,-11661,3711,-342,1861,0.109375,0.476562,-1.578125,0.000000,0.000000,0.000000,-0.078857,-0.002686,-0.575684,0.954834,0.005859,0.414551,62714535,5,1,18,1,0.000715,0.000000,0.250000,76.923073,5473,-216,205,560,8330,7779,8039,7501,4,0.000000,0.000000,0.000000,5745,5490,5760,4895
62.731995,-833,8210,-9731,-7798,-642,-1859,0.109375,0.476562,-1.578125,0.000000,0.000000,0.000000,-0.075195,-0.002197,-0.575195,-1.854980,-0.067383,-0.493652,62728269,1,0,9,0,0.000593,0.000000,0.250000,76.923073,5470,516,244,447,8264,7847,8103,7464,4,0.000000,0.000000,0.000000,6230,5054,5156,5438
62.741772,2143,10638,-14322,7460,-363,797,0.109375,0.476562,-1.578125,0.000000,0.000000,0.000000,-0.065674,-0.001953,-0.573242,1.870117,0.000732,0.154785,62742056,-3,0,-3,-1,-0.000385,0.000000,0.250000,76.923073,5467,-565,203,258,8211,7868,8074,7538,4,0.000000,0.000000,0.000000,5340,5881,5851,4795
62.751518,-797,-14864,-15433,7990,98,2199,0.109375,0.476562,-1.578125,0.000000,0.000000,0.000000,-0.072998,-0.001465,-0.574463,1.999512,0.113281,0.497070,62742056,-3,0,-3,-1,-0.000385,0.000000,0.250000,76.923073,5470,-553,140,284,8168,7933,8040,7508,4,0.000000,0.000000,0.000000,5319,5817,5904,4838
62.761284,-2687,-10101,-13947,-5603,-451,-514,0.109375,0.476562,-1.578125,-0.009998,0.029999,-0.039999,-0.078857,-0.001465,-0.576904,-1.319092,-0.020752,-0.165283,62753857,0,0,-14,-1,0.000144,-0.025346,0.250000,90.909088,5444,392,196,437,8112,7937,7984,7595,4,-0.024814,0.022779,-0.038281,6078,5086,5246,5364
62.771065,-404,18079,-10575,-9071,-599,-2521,0.109375,0.476562,-1.578125,-0.009998,0.029999,-0.039999,-0.071045,-0.001709,-0.576904,-2.165771,-0.056885,-0.655273,62769273,3,2,-2,0,-0.000992,-0.025346,0.250000,66.666672,5441,579,218,430,8171,7857,7962,7572,4,-0.024813,0.022481,-0.038454,6219,4970,5092,5481
62.780819,1385,738,-8316,6274,-305,882,0.109375,0.476562,-1.578125,-0.009998,0.029999,-0.039999,-0.070068,-0.001221,-0.576416,1.580566,0.014893,0.175537,62781061,-1,0,-1,0,-0.000004,-0.025346,0.250000,90.909088,5441,-458,175,396,8171,7833,7976,7573,4,-0.024792,0.022445,-0.038484,5438,5690,5839,4795
62.790600,1299,-21152,-8713,5721,-468,2166,0.109375,0.476562,-1.578125,-0.009998,-0.029999,0.059999,-0.078857,-0.001709,-0.578125,1.445557,-0.024902,0.489014,62781061,-1,0,-1,0,-0.000004,0.038019,0.250000,90.909088,5513,-352,220,515,8217,7755,7993,7546,4,0.008131,-0.035221,0.057374,5677,5659,5863,4851
62.800350,-431,2675,-10268,-10431,-355,-1994,0.109375,0.476562,-1.578125,-0.009998,-0.029999,0.059999,-0.078857,-0.001953,-0.579346,-2.497803,0.002686,-0.526611,62796608,-1,0,15,0,-0.000501,0.038019,0.250000,66.666672,5512,727,205,606,8237,7812,8047,7551,4,0.008181,-0.035218,0.057381,6473,4839,5156,5578
62.810120,-2722,16056,-5420,-2497,-350,-1024,0.109375,0.476562,-1.578125,-0.009998,-0.029999,0.059999,-0.073486,-0.001953,-0.577637,-0.560791,0.003906,-0.289795,62808324,-3,0,-3,0,-0.000259,0.038019,0.250000,90.909088,5510,159,205,517,8340,7802,8015,7530,4,0.008132,-0.034911,0.057579,6025,5284,5511,5218
62.819881,-519,-9716,-12483,9151,-581,2194,0.109375,0.476562,-1.578125,-0.009998,-0.029999,0.059999,-0.078125,-0.001953,-0.578125,2.282959,-0.052490,0.495850,62808324,-3,0,-3,0,-0.000259,0.038019,0.250000,90.909088,5512,-591,236,556,8395,7760,7977,7618,4,0.008148,-0.035174,0.057407,5539,5818,6040,4649
62.829662,1400,-11227,-10577,-2155,-431,710,0.109375,0.476562,-1.578125,0.039999,0.019999,-0.049999,-0.084473,-0.002441,-0.579346,-0.477295,-0.015869,0.133545,62822072,-5,0,-17,0,-0.000170,-0.031683,0.250000,76.923073,5441,182,226,664,8427,7760,8024,7555,4,0.022384,0.042723,-0.046610,6061,5140,5484,5077
62.839417,512,10006,-8456,-9221,-405,-1861,0.109375,0.476562,-1.578125,0.039999,0.019999,-0.049999,-0.078613,-0.002197,-0.578857,-2.202393,-0.009521,-0.494141,62835636,-5,0,4,0,-0.000388,-0.031683,0.250000,76.923073,5438,617,220,638,8356,7775,8048,7490,4,0.022427,0.042447,-0.046861,6348,4838,5165,5399
62.849186,475,9719,-11136,4773,98,466,0.109375,0.476562,-1.578125,0.039999,0.019999,-0.049999,-0.073730,-0.001709,-0.576904,1.214111,0.113281,0.073975,62849344,0,0,7,0,0.000362,-0.031683,0.250000,76.923073,5435,-348,150,536,8320,7707,8014,7428,4,0.022518,0.042169,-0.047070,5563,5519,5842,4814
62.858940,-723,-15293,-11011,6614,-289,2194,0.109375,0.476562,-1.578125,0.019999,-0.019999,0.059999,-0.081787,-0.001709,-0.577637,1.663574,0.018799,0.495850,62849344,0,0,7,0,0.000362,0.038019,0.250000,76.923073,5513,-406,205,590,8337,7714,8018,7445,4,0.027787,-0.010717,0.059260,5665,5649,5950,4786
62.868710,-1410,-115,-12799,-8349,-765,-686,0.109375,0.476562,-1.578125,0.019999,-0.019999,0.059999,-0.085693,-0.002197,-0.578857,-1.989502,-0.097412,-0.207275,62863296,0,0,6,0,-0.000065,0.038019,0.250000,76.923073,5514,619,271,672,8330,7759,8050,7490,4,0.027823,-0.010919,0.059219,6479,4931,5220,5424
62.878475,1986,15173,-8056,-4960,-311,-1610,0.109375,0.476562,-1.578125,0.019999,-0.019999,0.059999,-0.076904,-0.001709,-0.577148,-1.162109,0.013428,-0.432861,62876673,-2,0,0,0,-0.000151,0.038019,0.250000,76.923073,5510,339,207,584,8404,7754,8067,7515,4,0.027784,-0.010440,0.059318,6188,5124,5415,5311
62.888241,-1290,2874,-4657,8399,95,1941,0.109375,0.476562,-1.578125,0.000000,0.029999,0.009998,-0.076172,-0.001221,-0.576172,2.099365,0.112549,0.434082,62876673,-2,0,0,0,-0.000151,0.006336,0.250000,76.923073,5476,-563,121,524,8469,7726,8023,7564,4,-0.016335,0.024318,0.011906,5425,5697,6050,4730
62.898003,-3060,-17562,-9020,1750,-708,1567,0.109375,0.476562,-1.578125,0.000000,0.029999,0.009998,-0.083984,-0.001221,-0.577393,0.476074,-0.083496,0.342773,62890385,-1,0,-17,-1,-0.000169,0.006336,0.250000,76.923073,5480,-71,229,614,8392,7759,8079,7530,4,-0.016365,0.024201,0.012093,5898,5385,5675,4960
62.907772,2879,3183,-7529,-8617,-651,-1536,0.109375,0.476562,-1.578125,0.000000,0.029999,0.009998,-0.080322,-0.001465,-0.577148,-2.054932,-0.069580,-0.414795,62903967,-3,0,-7,-1,-0.000510,0.006336,0.250000,76.923073,5478,599,225,601,8349,7759,8072,7477,4,-0.016359,0.024251,0.012008,6361,4913,5195,5441
62.917542,4137,2643,-14119,7968,-285,924,0.109375,0.476562,-1.578125,0.000000,0.029999,0.009998,-0.069824,-0.001221,-0.575195,1.994141,0.019775,0.185791,62903967,-3,0,-7,-1,-0.000510,0.006336,0.250000,76.923073,5473,-574,175,431,8324,7774,8075,7501,4,-0.016311,0.024408,0.011749,5406,5787,5970,4727
62.927307,-728,-5775,-11198,8096,-316,2332,0.109375,0.476562,-1.578125,-0.009998,-0.019999,0.009998,-0.075195,-0.001465,-0.575439,2.025391,0.012207,0.529541,62927455,7,0,21,0,0.000627,0.006336,0.250000,43.478260,5476,-528,195,445,8324,7808,8050,7495,4,0.002512,-0.022906,0.008297,5463,5764,5933,4742
62.937069,-311,-18258,-14619,-5276,-455,65,0.109375,0.476562,-1.578125,-0.009998,-0.019999,0.009998,-0.080811,-0.001709,-0.577148,-1.239258,-0.021729,-0.023926,62927455,7,0,21,0,0.000627,0.006336,0.250000,43.478260,5478,401,216,560,8248,7844,8043,7476,4,0.002557,-0.022950,0.008167,6194,5067,5321,5328
62.946838,34,12635,-7161,-4703,-830,-1992,0.109375,0.476562,-1.578125,-0.009998,-0.019999,0.009998,-0.072266,-0.001953,-0.576416,-1.099365,-0.113281,-0.526123,62941100,0,0,-7,0,-0.000201,0.006336,0.250000,76.923073,5474,315,268,507,8307,7803,8008,7525,4,0.002538,-0.022881,0.008361,6139,5187,5315,5253
62.956600,4115,7823,-13966,6322,-61,937,0.109375,0.476562,-1.578125,0.009998,0.009998,0.000000,-0.068115,-0.001709,-0.575195,1.592285,0.074463,0.188965,62954897,0,0,-16,0,-0.000055,0.000000,0.250000,76.923073,5467,-455,163,453,8315,7822,8008,7521,4,0.002948,0.013796,0.000937,5487,5677,5899,4803
62.966362,-46,-19139,-9770,2715,-213,1835,0.109375,0.476562,-1.578125,0.009998,0.009998,0.000000,-0.077148,-0.002197,-0.576904,0.711670,0.037354,0.408203,62954897,0,0,-16,0,-0.000055,0.000000,0.250000,76.923073,5471,-157,185,566,8315,7806,7965,7528,4,0.002924,0.013792,0.001059,5773,5429,5734,4946
62.976131,-1802,-3992,-11808,-7355,-486,-1128,0.109375,0.476562,-1.578125,0.009998,0.009998,0.000000,-0.075684,-0.002197,-0.577148,-1.746826,-0.029297,-0.315186,62968529,3,0,-2,0,0.000008,0.000000,0.250000,76.923073,5470,511,220,608,8276,7823,8056,7504,4,0.002920,0.013796,0.001040,6290,4960,5257,5371
62.985905,-1238,16399,-10222,527,-322,-1094,0.109375,0.476562,-1.578125,0.009998,0.009998,0.000000,-0.065430,-0.001953,-0.575684,0.177490,0.010742,-0.306885,62982165,0,0,2,0,0.000034,0.000000,0.250000,76.923073,5465,-81,197,507,8285,7800,8045,7488,4,0.002941,0.013801,0.000899,5800,5408,5636,5014
62.995674,-46,-2339,-14695,7057,-307,1931,0.109375,0.476562,-1.578125,0.000000,0.000000,0.009998,-0.068604,-0.002197,-0.575684,1.771729,0.014404,0.431641,62995833,5,0,16,0,-0.000271,0.006336,0.250000,76.923073,5472,-493,196,497,8298,7800,8057,7482,4,0.000022,-0.000687,0.009975,5510,5710,5930,4736
63.005428,1635,-18258,-5986,244,-396,1203,0.109375,0.476562,-1.578125,0.000000,0.000000,0.009998,-0.075195,-0.002197,-0.577393,0.108398,-0.007324,0.253906,62995833,5,0,16,0,-0.000271,0.006336,0.250000,76.923073,5476,3,206,596,8279,7816,8057,7501,4,0.000023,-0.000753,0.009969,5921,5321,5626,5034
63.015194,681,10930,-6935,-7510,-597,-2044,0.109375,0.476562,-1.578125,0.000000,0.000000,0.009998,-0.067627,-0.002197,-0.576904,-1.784668,-0.056396,-0.538818,63009491,0,0,-15,0,0.000267,0.006336,0.250000,76.923073,5472,476,234,579,8275,7816,8079,7475,4,0.000023,-0.000677,0.009975,6263,5011,5259,5353
63.024956,-2918,11828,-9049,2672,-21,193,0.109375,0.476562,-1.578125,-0.029999,-0.009998,0.009998,-0.063477,-0.001953,-0.575195,0.701172,0.084229,0.007324,63023161,0,1,-8,1,-0.000393,0.006336,0.250000,76.923073,5471,-221,143,477,8287,7779,8048,7513,4,-0.019712,-0.025294,0.008448,5654,5489,5764,4975
63.034729,-532,-16294,-10599,6538,-586,2244,0.109375,0.476562,-1.578125,-0.029999,-0.009998,0.009998,-0.071045,-0.001953,-0.576172,1.645020,-0.053711,0.508057,63023161,0,1,-8,1,-0.000393,0.006336,0.250000,76.923073,5474,-433,219,549,8302,7778,8039,7509,4,-0.019684,-0.025377,0.008255,5597,5660,5899,4738
63.044487,2736,-3693,-13393,-6098,-287,-721,0.109375,0.476562,-1.578125,-0.029999,-0.009998,0.009998,-0.072998,-0.002197,-0.577148,-1.439941,0.019287,-0.215820,63036854,0,0,-5,0,-0.000103,0.006336,0.250000,76.923073,5475,422,180,625,8305,7747,8016,7485,4,-0.019653,-0.025417,0.008213,6213,4991,5361,5333
63.054256,-429,17150,-7153,87,-442,-662,0.109375,0.476562,-1.578125,0.039999,0.000000,0.009998,-0.063965,-0.001953,-0.575928,0.070068,-0.018555,-0.201416,63051375,3,0,29,0,0.000015,0.006336,0.250000,71.428566,5471,-75,232,470,8303,7808,8087,7479,4,0.033568,0.021100,0.011298,5817,5453,5594,5018
63.064034,1758,-1282,-6239,8336,-91,1680,0.109375,0.476562,-1.578125,0.039999,0.000000,0.009998,-0.063721,-0.001953,-0.574951,2.083984,0.067139,0.370361,63062229,-1,0,-4,0,-0.000771,0.006336,0.250000,100.000000,5471,-627,184,405,8252,7855,8053,7449,4,0.033586,0.021071,0.011293,5360,5841,5986,4695
63.073788,394,-15033,-7730,-300,-411,1109,0.109375,0.476562,-1.578125,0.039999,0.000000,0.009998,-0.073730,-0.002197,-0.576904,-0.024414,-0.010986,0.230957,63062229,-1,0,-4,0,-0.000771,0.006336,0.250000,100.000000,5476,14,228,542,8241,7867,8048,7465,4,0.033538,0.021029,0.011497,5918,5356,5575,5053
63.083553,-912,10538,-8853,-10195,-760,-2103,0.109375,0.476562,-1.578125,0.039999,0.000000,0.009998,-0.072266,-0.002441,-0.577393,-2.440186,-0.096191,-0.553223,63075929,0,0,-9,0,0.000104,0.006336,0.250000,76.923073,5474,668,276,586,8266,7877,7999,7509,4,0.033538,0.021063,0.011466,6434,4903,5099,5458
63.093315,2727,11845,-9348,2606,-289,-165,0.109375,0.476562,-1.578125,-0.029999,-0.009998,0.009998,-0.064209,-0.002197,-0.575684,0.685059,0.018799,-0.080078,63089596,0,1,-10,1,0.000131,0.006336,0.250000,76.923073,5472,-228,178,485,8336,7795,7996,7511,4,-0.019693,-0.025311,0.008434,5679,5516,5749,4942
63.103096,-1142,-6957,-20144,7929,355,2465,0.109375,0.476562,-1.578125,-0.029999,-0.009998,0.009998,-0.069336,-0.001953,-0.576172,1.984619,0.176025,0.562012,63101278,-1,0,1,0,0.000091,0.006336,0.250000,90.909088,5473,-552,89,517,8300,7782,7997,7540,4,-0.019689,-0.025367,0.008298,5404,5667,6058,4761
63.112846,-5008,-2123,-10999,-7388,-466,-466,0.109375,0.476562,-1.578125,-0.029999,-0.009998,0.009998,-0.075928,-0.001953,-0.577637,-1.754883,-0.024414,-0.153564,63101278,-1,0,1,0,0.000091,0.006336,0.250000,90.909088,5476,506,195,561,8309,7730,8017,7536,4,-0.019653,-0.025448,0.008133,6252,4975,5260,5415
63.122612,-1957,17142,-9008,-7410,-1057,-2242,0.109375,0.476562,-1.578125,0.029999,0.009998,0.009998,-0.067139,-0.002197,-0.576416,-1.760254,-0.168701,-0.587158,63115211,1,0,22,0,0.000716,0.006336,0.250000,76.923073,5472,436,303,493,8275,7783,8068,7554,4,0.019722,0.024010,0.011587,6240,5131,5196,5319
63.132385,-228,-13285,-13187,8868,-651,2297,0.109375,0.476562,-1.578125,0.029999,0.009998,0.009998,-0.068848,-0.002197,-0.575928,2.213867,-0.069580,0.520996,63128702,-3,0,0,-1,-0.000329,0.006336,0.250000,76.923073,5473,-657,250,400,8309,7769,8011,7573,4,0.019736,0.023979,0.011632,5385,5914,5960,4631
63.142159,-2609,-14683,-9380,3574,-235,1691,0.109375,0.476562,-1.578125,0.029999,0.009998,0.009998,-0.074219,-0.001953,-0.576904,0.921387,0.031982,0.373047,63142317,-3,0,-24,0,0.000384,0.006336,0.250000,76.923073,5475,-263,192,467,8227,7857,8062,7512,4,0.019707,0.023937,0.011763,5658,5563,5758,4919
63.151913,-2150,-3310,-11384,-11946,-908,-1747,0.109375,0.476562,-1.578125,0.029999,0.009998,0.009998,-0.074707,-0.002930,-0.578613,-2.867676,-0.132324,-0.466309,63142317,-3,0,-24,0,0.000384,0.006336,0.250000,76.923073,5476,777,291,577,8225,7892,8054,7488,4,0.019675,0.023964,0.011760,6519,4843,5009,5531
63.161678,-404,9711,-9309,152,-222,-1000,0.109375,0.488281,-1.578125,-0.029999,0.019999,-0.049999,-0.067627,-0.002441,-0.576904,0.085938,0.035156,-0.283936,63155967,-1,0,-10,-1,-0.000311,-0.031683,0.250000,76.923073,5432,-68,160,490,8284,7818,7985,7509,4,-0.036183,0.003775,-0.049758,5742,5348,5611,5025
63.171444,1724,-1584,-10734,9265,-401,2029,0.109375,0.488281,-1.578125,-0.029999,0.019999,-0.049999,-0.070312,-0.002441,-0.576904,2.311035,-0.008545,0.455566,63169746,-1,0,1,1,-0.000235,-0.031683,0.250000,76.923073,5433,-664,183,500,8320,7736,7994,7502,4,-0.036179,0.003902,-0.049748,5342,5781,6023,4584
63.181206,296,-13231,-9319,-6115,-396,185,0.109375,0.488281,-1.578125,-0.029999,0.019999,-0.049999,-0.080566,-0.002930,-0.579102,-1.444092,-0.007324,0.005371,63169746,-1,0,1,1,-0.000235,-0.031683,0.250000,76.923073,5437,424,187,654,8259,7750,8008,7458,4,-0.036208,0.004335,-0.049695,6195,4942,5332,5277
63.190971,1900,5697,-5920,-9156,-409,-1717,0.109375,0.476562,-1.578125,0.049999,-0.029999,0.059999,-0.077393,-0.002930,-0.578369,-2.186523,-0.010498,-0.458984,63183329,1,0,15,1,-0.000345,0.038019,0.250000,76.923073,5509,607,247,615,8269,7720,8003,7477,4,0.058458,-0.002416,0.059814,6420,4946,5212,5456
63.200748,-497,15158,-11951,6194,-255,178,0.109375,0.476562,-1.578125,0.049999,-0.029999,0.059999,-0.069824,-0.002930,-0.576660,1.561279,0.027100,0.003662,63197036,-15,0,4,0,0.000592,0.038019,0.250000,76.923073,5506,-465,228,520,8381,7724,7985,7490,4,0.058453,-0.002080,0.059818,5598,5735,5933,4756
63.210518,264,-11887,-8149,4136,-475,2053,0.109375,0.476562,-1.578125,0.049999,-0.029999,0.059999,-0.078613,-0.003418,-0.577637,1.058594,-0.026611,0.461426,63210617,-3,0,-5,0,-0.000469,0.038019,0.250000,76.923073,5510,-275,261,608,8415,7811,8029,7521,4,0.058479,-0.002538,0.059774,5804,5584,5823,4827
63.220287,1787,-6339,-11899,-8171,-52,-475,0.109375,0.476562,-1.578125,0.049999,-0.029999,0.059999,-0.083984,-0.003418,-0.578613,-1.946045,0.076660,-0.155762,63210617,-3,0,-5,0,-0.000469,0.038019,0.250000,76.923073,5513,579,201,689,8383,7763,8054,7477,4,0.058473,-0.002795,0.059766,6408,4901,5306,5435
63.230042,-208,18062,-8012,-3914,-536,-1686,0.109375,0.488281,-1.578125,-0.029999,0.000000,0.039999,-0.072998,-0.003174,-0.577148,-0.906494,-0.041504,-0.451416,63224388,-7,0,-22,0,0.000027,0.025346,0.250000,76.923073,5495,229,211,595,8386,7763,8062,7549,4,-0.025009,-0.019257,0.038773,6103,5184,5481,5210
63.239807,-2155,5226,-10038,6769,91,1721,0.109375,0.488281,-1.578125,-0.029999,0.000000,0.039999,-0.072021,-0.002686,-0.575684,1.701660,0.111572,0.380371,63238063,2,-1,10,0,-0.000116,0.025346,0.250000,76.923073,5495,-484,125,535,8404,7738,8078,7506,4,-0.025052,-0.019181,0.038783,5508,5658,6016,4796
63.249565,-740,-15921,-6528,71,-514,1567,0.109375,0.488281,-1.578125,-0.029999,0.000000,0.039999,-0.082031,-0.002686,-0.577148,0.066162,-0.036133,0.342773,63238063,2,-1,10,0,-0.000116,0.025346,0.250000,76.923073,5499,10,203,558,8348,7749,8152,7516,4,-0.025024,-0.019603,0.038587,5928,5356,5627,5083
63.259327,3892,6822,-7428,-9474,-601,-2081,0.109375,0.488281,-1.578125,0.019999,0.009998,0.009998,-0.077637,-0.002930,-0.577393,-2.264160,-0.057373,-0.547852,63251710,1,0,15,0,0.000794,0.006336,0.250000,76.923073,5475,613,242,567,8326,7845,8123,7536,4,0.011329,0.018464,0.011428,6363,4929,5153,5453
63.269108,230,16784,-10697,-65,-132,-322,0.109375,0.488281,-1.578125,0.019999,0.009998,0.009998,-0.071777,-0.002686,-0.575439,0.033203,0.057129,-0.118408,63265374,-1,0,-7,0,0.000053,0.006336,0.250000,76.923073,5473,-45,179,446,8344,7800,8062,7484,4,0.011364,0.018504,0.011324,5790,5408,5601,5091
63.278877,-784,-9280,-17221,8940,-130,2334,0.109375,0.488281,-1.578125,0.019999,0.009998,0.009998,-0.077637,-0.002441,-0.575928,2.231445,0.057617,0.530029,63279113,-3,0,-14,0,0.000015,0.006336,0.250000,76.923073,5476,-614,177,464,8352,7786,8008,7512,4,0.011353,0.018442,0.011432,5399,5803,6016,4684
63.288628,443,-12556,-13130,-5052,-608,21,0.109375,0.488281,-1.578125,-0.019999,-0.019999,0.019999,-0.083496,-0.002930,-0.577637,-1.184570,-0.059082,-0.034668,63279113,-3,0,-14,0,0.000015,0.012672,0.250000,76.923073,5485,371,235,585,8272,7835,8078,7479,4,-0.005770,-0.029247,0.017640,6205,5096,5349,5288
63.298397,-865,17157,-10685,-7244,-688,-2085,0.109375,0.488281,-1.578125,-0.019999,-0.019999,0.019999,-0.078613,-0.002686,-0.576904,-1.719727,-0.078613,-0.548828,63291023,-3,0,-5,0,-0.000582,0.012672,0.250000,90.909088,5483,490,244,560,8324,7805,8036,7535,4,-0.005791,-0.029159,0.017783,6281,5029,5244,5376
63.308170,4277,3568,-7732,6715,-143,987,0.109375,0.488281,-1.578125,-0.019999,-0.019999,0.019999,-0.074951,-0.002441,-0.575684,1.688477,0.054443,0.201172,63304417,-1,0,2,0,-0.000108,0.012672,0.250000,76.923073,5482,-468,167,483,8378,7773,7983,7534,4,-0.005836,-0.029081,0.017884,5510,5689,5936,4791
63.317936,912,-17299,-12017,3923,135,2031,0.109375,0.488281,-1.578125,-0.019999,-0.019999,0.019999,-0.082031,-0.002197,-0.577393,1.006592,0.122314,0.456055,63318107,0,1,32,0,-0.000253,0.012672,0.250000,76.923073,5485,-236,128,596,8347,7755,8041,7548,4,-0.005792,-0.029222,0.017672,5706,5444,5859,4929
63.327694,-4242,-134,-14670,-8885,-427,-1279,0.109375,0.476562,-1.578125,0.019999,0.000000,0.000000,-0.084473,-0.001953,-0.577881,-2.120361,-0.014893,-0.352051,63318107,0,1,32,0,-0.000253,0.000000,0.250000,76.923073,5472,628,218,652,8369,7775,8051,7497,4,0.016749,0.010892,0.000885,6396,4856,5199,5435
63.337463,-2631,14182,-7877,-466,-856,-1096,0.109375,0.476562,-1.578125,0.019999,0.000000,0.000000,-0.075439,-0.002197,-0.575928,-0.064941,-0.119629,-0.307373,63331784,-5,0,-15,0,0.000001,0.000000,0.250000,76.923073,5468,9,279,546,8338,7728,8034,7517,4,0.016771,0.010867,0.000781,5944,5385,5537,5004
63.347229,3313,-6472,-15811,8724,126,2310,0.109375,0.476562,-1.578125,0.019999,0.000000,0.000000,-0.076416,-0.001953,-0.575439,2.178711,0.120117,0.524170,63345389,-1,0,-5,-1,-0.000144,0.000000,0.250000,76.923073,5470,-595,144,524,8390,7718,8040,7504,4,0.016772,0.010856,0.000797,5413,5730,6050,4685
63.356987,4591,-3938,-14155,-6569,340,-708,0.109375,0.476562,-1.578125,-0.029999,-0.019999,0.019999,-0.085449,-0.001465,-0.577393,-1.554932,0.172363,-0.212646,63345389,-1,0,-5,-1,-0.000144,0.012672,0.250000,76.923073,5486,508,90,680,8368,7757,8052,7510,4,-0.014187,-0.034721,0.017113,6248,4850,5403,5441
63.366753,-3379,8868,-6516,-9350,-906,-1564,0.109375,0.476562,-1.578125,-0.029999,-0.019999,0.019999,-0.079834,-0.001465,-0.576660,-2.233887,-0.131836,-0.421631,63359129,-1,0,-12,0,-0.000299,0.012672,0.250000,76.923073,5484,658,261,652,8375,7707,8058,7517,4,-0.014207,-0.034614,0.017314,6459,4877,5160,5438
63.376530,-963,1003,-10236,6597,-244,636,0.109375,0.476562,-1.578125,-0.029999,-0.019999,0.019999,-0.070557,-0.000977,-0.574219,1.659424,0.029785,0.115479,63373119,7,0,9,0,0.000251,0.012672,0.250000,76.923073,5480,-463,168,512,8412,7685,8036,7536,4,-0.014295,-0.034417,0.017627,5527,5670,5944,4777
63.386292,1898,-11720,-14766,8271,-244,2593,0.109375,0.476562,-1.578125,-0.029999,-0.019999,0.019999,-0.075439,-0.000977,-0.574707,2.068115,0.029785,0.593262,63373119,7,0,9,0,0.000251,0.012672,0.250000,76.923073,5482,-541,168,532,8379,7752,8094,7496,4,-0.014284,-0.034508,0.017460,5484,5717,6011,4714
63.396057,806,-1216,-13456,-9328,-150,-1096,0.109375,0.476562,-1.578125,0.029999,-0.009998,-0.019999,-0.079102,-0.001221,-0.575928,-2.228516,0.052734,-0.307373,63388429,5,1,18,0,0.000438,-0.012672,0.250000,66.666672,5457,649,183,615,8302,7810,8101,7504,4,0.030575,0.009518,-0.019347,6352,4820,5176,5478
63.405819,-939,9135,-7578,-3463,-710,-1155,0.109375,0.476562,-1.578125,0.029999,-0.009998,-0.019999,-0.068848,-0.001221,-0.573975,-0.796631,-0.083984,-0.321777,63402169,3,0,-10,-1,0.000910,-0.012672,0.250000,76.923073,5452,194,259,484,8320,7761,8067,7494,4,0.030595,0.009258,-0.019447,6014,5255,5373,5164
63.415611,-694,-5469,-8470,10631,-514,1806,0.109375,0.476562,-1.578125,0.029999,-0.009998,-0.019999,-0.063965,-0.001221,-0.572754,2.644531,-0.036133,0.401123,63416369,1,0,-13,0,-0.001326,-0.012672,0.250000,71.428566,5450,-773,234,400,8287,7809,8042,7459,4,0.030602,0.009128,-0.019496,5268,5961,6031,4538
63.425346,1861,-8728,-8846,-139,-392,1255,0.109375,0.476562,-1.578125,-0.029999,-0.009998,0.009998,-0.072266,-0.001465,-0.574463,0.014893,-0.006348,0.266602,63416369,1,0,-13,0,-0.001326,0.006336,0.250000,71.428566,5474,-10,188,397,8203,7878,8093,7422,4,-0.019730,-0.025352,0.008219,5798,5415,5546,5135
63.435112,2545,2889,-5253,-10405,-220,-1904,0.109375,0.476562,-1.578125,-0.029999,-0.009998,0.009998,-0.069580,-0.001465,-0.574951,-2.491455,0.035645,-0.504639,63428002,5,0,-2,0,-0.000042,0.006336,0.250000,90.909088,5473,663,164,354,8170,7983,8084,7410,4,-0.019716,-0.025342,0.008285,6234,4943,5065,5648
63.444885,-63,13074,-10511,4372,-340,-642,0.109375,0.476562,-1.578125,-0.029999,-0.009998,0.009998,-0.060791,-0.001221,-0.573730,1.116455,0.006348,-0.196533,63443028,13,0,25,1,-0.000077,0.006336,0.250000,66.666672,5470,-374,179,252,8121,7941,8032,7561,4,-0.019752,-0.025242,0.008509,5458,5734,5733,4953
63.454647,-1648,-2430,-14673,8096,63,1865,0.109375,0.476562,-1.578125,0.000000,0.000000,0.000000,-0.066650,-0.001221,-0.575439,2.025391,0.104736,0.415527,63443028,13,0,25,1,-0.000077,0.000000,0.250000,66.666672,5465,-590,135,338,8154,7940,8000,7574,4,0.000000,0.000000,0.000000,5312,5808,5955,4783
63.464413,-2734,-7767,-13932,-8410,-549,-651,0.109375,0.476562,-1.578125,0.000000,0.000000,0.000000,-0.074707,-0.001709,-0.577881,-2.004395,-0.044678,-0.198730,63456715,1,0,0,0,0.000148,0.000000,0.250000,76.923073,5468,560,220,508,8202,7949,7992,7581,4,0.000000,0.000000,0.000000,6273,4973,5170,5454
63.474182,2219,15144,-8382,-6826,-760,-2462,0.109375,0.476562,-1.578125,0.000000,0.000000,0.000000,-0.067139,-0.001953,-0.577637,-1.617676,-0.096191,-0.640869,63470402,-3,0,-7,0,-0.000553,0.000000,0.250000,76.923073,5466,406,252,495,8225,7887,8002,7562,4,0.000000,0.000000,0.000000,6178,5109,5248,5327
63.483952,2504,6305,-10533,6584,-41,839,0.109375,0.476562,-1.578125,0.000000,0.000000,0.000000,-0.065186,-0.001709,-0.576904,1.656250,0.079346,0.165039,63484063,-2,2,-21,2,0.000110,0.000000,0.250000,76.923073,5464,-505,152,461,8242,7828,7966,7581,4,0.000000,0.000000,0.000000,5444,5698,5944,4768
63.493706,-3188,-17125,-12340,3376,-268,1852,0.109375,0.476562,-1.578125,-0.009998,-0.049999,0.019999,-0.074463,-0.001709,-0.578613,0.873047,0.023926,0.412354,63484063,-2,2,-21,2,0.000110,0.012672,0.250000,76.923073,5480,-225,192,575,8294,7789,8019,7527,4,0.019017,-0.048683,0.016381,5744,5487,5790,4897
63.503475,-500,-4000,-12208,-9548,-858,-1329,0.109375,0.476562,-1.578125,-0.009998,-0.049999,0.019999,-0.075928,-0.002441,-0.579590,-2.282227,-0.120117,-0.364258,63497794,0,-1,16,0,-0.001044,0.012672,0.250000,76.923073,5481,642,277,647,8266,7817,8024,7510,4,0.019072,-0.048689,0.016302,6454,4899,5154,5415
63.513245,-507,14619,-8765,-523,-483,-1094,0.109375,0.476562,-1.578125,-0.009998,-0.049999,0.019999,-0.068604,-0.002441,-0.578125,-0.078857,-0.028564,-0.306885,63511514,0,0,13,0,0.000317,0.012672,0.250000,76.923073,5478,-7,226,576,8332,7758,8035,7483,4,0.019004,-0.048593,0.016661,5920,5354,5611,5025
63.523003,1618,-1770,-11914,8519,-246,2144,0.109375,0.476562,-1.578125,-0.070000,-0.009998,0.080000,-0.071777,-0.002441,-0.577393,2.128662,0.029297,0.483643,63511514,0,0,13,0,0.000317,0.050693,0.250000,76.923073,5521,-594,154,562,8380,7728,8024,7499,4,-0.052980,-0.052214,0.076590,5490,5768,6113,4711
63.532768,934,-19860,-7028,-3062,-189,895,0.109375,0.476562,-1.578125,-0.070000,-0.009998,0.080000,-0.079834,-0.002686,-0.579346,-0.698730,0.043213,0.178711,63525143,-2,0,1,1,0.000220,0.050693,0.250000,76.923073,5524,227,148,684,8390,7773,8111,7478,4,-0.052868,-0.052934,0.076169,6131,5126,5600,5237
63.542542,-1832,9608,-8157,-8944,-675,-1979,0.109375,0.476562,-1.578125,-0.070000,-0.009998,0.080000,-0.075684,-0.002930,-0.578613,-2.134766,-0.075439,-0.522949,63538812,-3,0,-9,0,0.000684,0.050693,0.250000,76.923073,5522,594,214,659,8403,7771,8121,7539,4,-0.052898,-0.052582,0.076394,6422,4923,5280,5461
63.552315,-929,7710,-11872,5289,-605,536,0.109375,0.476562,-1.578125,-0.070000,-0.009998,0.080000,-0.069824,-0.002930,-0.576660,1.340088,-0.058350,0.091064,63550502,-3,0,-11,0,-0.000399,0.050693,0.250000,90.909088,5519,-394,206,537,8419,7739,8099,7535,4,-0.052992,-0.052036,0.076703,5654,5674,5920,4826
63.562065,3654,-18087,-10401,7218,-204,2739,0.109375,0.476562,-1.578125,0.039999,-0.029999,-0.080000,-0.075684,-0.003418,-0.576660,1.811035,0.039551,0.628906,63550502,-3,0,-11,0,-0.000399,-0.050693,0.250000,90.909088,5414,-518,219,511,8362,7838,8139,7511,4,0.049602,0.002748,-0.080184,5458,5679,5880,4637
63.571831,-568,-2911,-11833,-9404,176,-1126,0.109375,0.476562,-1.578125,0.039999,-0.029999,-0.080000,-0.081055,-0.003418,-0.578369,-2.247070,0.132324,-0.314697,63564298,2,0,21,0,-0.000256,-0.050693,0.250000,76.923073,5415,632,165,616,8305,7865,8132,7402,4,0.049612,0.003252,-0.080168,6286,4776,5159,5437
63.581608,-4529,19740,-9917,-4823,-817,-1514,0.109375,0.476562,-1.578125,0.039999,-0.029999,-0.080000,-0.074463,-0.003662,-0.576904,-1.128662,-0.110107,-0.409424,63577800,2,0,6,2,-0.000187,-0.050693,0.250000,76.923073,5412,288,302,534,8290,7770,7988,7423,4,0.049593,0.002649,-0.080209,6096,5154,5261,5135
63.591377,309,-7489,-8394,9847,-342,1974,0.109375,0.476562,-1.578125,0.000000,-0.059999,-0.009998,-0.073975,-0.003174,-0.576172,2.452881,0.005859,0.442139,63591493,-1,0,3,0,-0.000539,-0.006336,0.250000,76.923073,5461,-681,222,498,8308,7694,7923,7397,4,0.032661,-0.049420,-0.013800,5385,5850,6034,4573
63.601128,2717,-15423,-6803,656,-58,1373,0.109375,0.476562,-1.578125,0.000000,-0.059999,-0.009998,-0.082031,-0.003174,-0.577881,0.208984,0.075195,0.295410,63591493,-1,0,3,0,-0.000539,-0.006336,0.250000,76.923073,5464,-16,180,607,8297,7770,7951,7426,4,0.032743,-0.049252,-0.014185,5883,5299,5651,5021
63.610901,730,12998,-7418,-11483,-333,-1961,0.109375,0.476562,-1.578125,0.000000,-0.059999,-0.009998,-0.079834,-0.002686,-0.577881,-2.754639,0.008057,-0.518555,63605722,-4,0,-8,1,-0.000313,-0.006336,0.250000,71.428566,5463,772,215,552,8278,7786,8042,7454,4,0.032748,-0.049289,-0.014064,6436,4793,5041,5580
63.620667,-1196,8333,-10558,3825,-148,-237,0.109375,0.476562,-1.578125,0.000000,-0.059999,-0.009998,-0.070801,-0.002197,-0.575928,0.982910,0.053223,-0.097656,63618840,0,0,-19,-2,0.000234,-0.006336,0.250000,76.923073,5459,-294,186,447,8310,7744,8006,7522,4,0.032658,-0.049474,-0.013605,5606,5574,5758,4896
63.630424,-1326,-20088,-17537,8992,71,2735,0.109375,0.476562,-1.578125,-0.019999,0.009998,0.029999,-0.076416,-0.001709,-0.576660,2.244141,0.106689,0.627930,63618840,0,0,-19,-2,0.000234,0.019009,0.250000,76.923073,5489,-617,122,487,8325,7771,8011,7535,4,-0.022161,-0.004811,0.029755,5382,5767,6082,4723
63.640186,-1888,1542,-16875,-7841,-296,-850,0.109375,0.476562,-1.578125,-0.019999,0.009998,0.029999,-0.081543,-0.001465,-0.577881,-1.865479,0.017090,-0.247314,63632563,3,0,29,-1,-0.000481,0.019009,0.250000,76.923073,5490,542,170,573,8262,7791,8058,7515,4,-0.022165,-0.004995,0.029726,6279,4940,5273,5466
63.649956,-232,14852,-8647,-7484,-719,-1878,0.109375,0.476562,-1.578125,-0.019999,0.009998,0.029999,-0.073486,-0.001221,-0.576904,-1.778320,-0.086182,-0.498291,63646301,3,0,0,-1,0.000617,0.019009,0.250000,76.923073,5487,467,228,514,8272,7812,8099,7542,4,-0.022174,-0.004728,0.029766,6235,5061,5252,5398
63.659740,2067,-559,-5841,8914,-440,1403,0.109375,0.476562,-1.578125,-0.009998,-0.019999,0.009998,-0.071533,-0.001221,-0.575928,2.225098,-0.018066,0.302734,63659896,-1,1,-8,0,-0.000082,0.006336,0.250000,76.923073,5471,-630,207,455,8301,7774,8062,7577,4,0.002520,-0.022878,0.008378,5399,5835,5997,4651
63.669487,68,-13111,-9930,-3533,-233,283,0.109375,0.476562,-1.578125,-0.009998,-0.019999,0.009998,-0.081787,-0.001221,-0.578125,-0.813721,0.032471,0.029297,63659896,-1,1,-8,0,-0.000082,0.006336,0.250000,76.923073,5476,274,178,602,8325,7795,8060,7549,4,0.002573,-0.022956,0.008143,6096,5107,5457,5242
63.679256,-2288,-1885,-7438,-11507,-717,-1527,0.109375,0.476562,-1.578125,-0.009998,-0.019999,0.009998,-0.079102,-0.001709,-0.578369,-2.760498,-0.085693,-0.412598,63673770,-1,0,-11,0,0.000231,0.006336,0.250000,76.923073,5475,794,247,676,8334,7765,8021,7526,4,0.002582,-0.022930,0.008208,6549,4750,5076,5523
63.689034,-470,7676,-7776,1405,-555,-680,0.109375,0.476562,-1.578125,-0.009998,-0.019999,0.009998,-0.068848,-0.001221,-0.576172,0.392090,-0.046143,-0.205811,63685273,-3,0,-9,0,-0.000757,0.006336,0.250000,90.909088,5471,-133,221,543,8394,7733,8031,7498,4,0.002528,-0.022852,0.008440,5804,5449,5680,4949
63.698814,2562,-3462,-14641,10777,-224,2611,0.109375,0.476562,-1.578125,-0.059999,-0.049999,0.009998,-0.069824,-0.001465,-0.575439,2.680176,0.034668,0.597656,63698947,5,1,21,2,0.000452,0.006336,0.250000,76.923073,5471,-735,163,517,8368,7743,8060,7477,4,-0.023099,-0.075117,0.004796,5325,5847,6133,4577
63.708549,-2538,-11627,-11791,-4400,-113,361,0.109375,0.476562,-1.578125,-0.059999,-0.049999,0.009998,-0.075684,-0.001465,-0.577148,-1.025391,0.061768,0.048340,63698947,5,1,21,2,0.000452,0.006336,0.250000,76.923073,5474,314,146,619,8273,7782,8069,7472,4,-0.022970,-0.075186,0.004367,6108,5045,5458,5283
63.718327,-2109,14494,-10658,-7940,-710,-1793,0.109375,0.476562,-1.578125,-0.059999,-0.049999,0.009998,-0.068604,-0.001709,-0.575928,-1.889648,-0.083984,-0.477539,63712632,1,0,5,0,0.000169,0.006336,0.250000,76.923073,5471,511,230,549,8304,7813,8121,7459,4,-0.023058,-0.075121,0.004901,6269,4997,5221,5395
63.728085,632,2393,-10916,7970,-590,754,0.109375,0.476562,-1.578125,0.019999,-0.009998,0.009998,-0.062500,-0.001709,-0.574707,1.994629,-0.054688,0.144287,63726258,1,0,-13,0,0.000703,0.006336,0.250000,76.923073,5469,-610,240,460,8250,7763,8042,7531,4,0.022239,0.001849,0.010095,5437,5839,5960,4638
63.737850,887,-14435,-11313,5810,-361,2260,0.109375,0.476562,-1.578125,0.019999,-0.009998,0.009998,-0.069336,-0.002197,-0.575439,1.467285,0.001221,0.511963,63726258,1,0,-13,0,0.000703,0.006336,0.250000,76.923073,5471,-432,212,514,8277,7823,8084,7429,4,0.022240,0.001802,0.010097,5572,5669,5883,4758
63.747616,981,-2918,-12515,-10793,21,-1390,0.109375,0.476562,-1.578125,0.019999,-0.009998,0.009998,-0.068359,-0.001709,-0.576416,-2.586182,0.094482,-0.379150,63740408,3,-1,-19,-1,0.000094,0.006336,0.250000,71.428566,5470,670,153,506,8132,7963,8178,7374,4,0.022235,0.001829,0.010106,6304,4851,5141,5582
63.757385,-4659,16669,-7656,-2364,-562,-1628,0.109375,0.476562,-1.578125,0.019999,-0.009998,0.009998,-0.060303,-0.001709,-0.574951,-0.528320,-0.047852,-0.437256,63753652,4,0,-1,0,-0.000158,0.006336,0.250000,76.923073,5468,62,232,415,8151,7926,8110,7431,4,0.022237,0.001882,0.010089,5883,5380,5467,5140
63.767143,-3904,-6374,-11541,8997,-597,1896,0.109375,0.476562,-1.578125,-0.039999,-0.059999,0.000000,-0.064209,-0.001709,-0.575195,2.245361,-0.056396,0.423096,63753652,4,0,-1,0,-0.000158,0.000000,0.250000,76.923073,5464,-647,222,426,8197,7917,7989,7529,4,-0.000913,-0.071947,-0.004625,5376,5865,5977,4636
63.776932,4228,-14884,-11911,-1987,-457,1022,0.109375,0.476562,-1.578125,-0.039999,-0.059999,0.000000,-0.073730,-0.002197,-0.577393,-0.436279,-0.022217,0.209717,63769267,11,0,21,0,0.001183,0.000000,0.250000,66.666672,5468,143,205,564,8234,7833,7985,7534,4,-0.000760,-0.071897,-0.005309,5996,5229,5503,5142
63.786678,4372,10094,-7514,-9980,-39,-2345,0.109375,0.476562,-1.578125,-0.039999,-0.059999,0.000000,-0.070801,-0.001953,-0.577637,-2.387695,0.079834,-0.612305,63780979,-1,0,7,1,0.000069,0.000000,0.250000,90.909088,5466,657,145,589,8246,7830,8028,7527,4,-0.000739,-0.071922,-0.005098,6327,4809,5193,5533
63.796448,-3536,10867,-10089,3737,-505,135,0.117188,0.468750,-1.578125,0.009998,-0.009998,0.019999,-0.066650,-0.001709,-0.576416,0.961182,-0.033936,-0.006836,63794619,-4,0,-10,-1,-0.000292,0.012672,0.250000,76.923073,5477,-307,225,528,8363,7722,8010,7532,4,0.013871,-0.004261,0.019731,5683,5589,5798,4836
63.806213,-3742,-12370,-6835,-1530,-409,845,0.117188,0.468750,-1.578125,0.009998,-0.009998,0.019999,-0.078125,-0.001953,-0.578369,-0.324707,-0.010498,0.166504,63794619,-4,0,-10,-1,-0.000292,0.012672,0.250000,76.923073,5481,115,212,657,8360,7718,7989,7544,4,0.013878,-0.004456,0.019680,6040,5221,5578,5083
63.815971,1942,-1920,-14008,-7737,-233,-669,0.117188,0.468750,-1.578125,0.009998,-0.009998,0.019999,-0.077637,-0.002197,-0.578369,-1.840088,0.032471,-0.203125,63808510,-3,0,-7,0,0.000148,0.012672,0.250000,76.923073,5480,536,192,741,8409,7679,8017,7555,4,0.013887,-0.004449,0.019680,6365,4866,5335,5352
63.825748,-1827,20147,-7791,-5322,-658,-1654,0.117188,0.468750,-1.578125,-0.039999,-0.059999,0.009998,-0.069092,-0.001953,-0.576660,-1.250488,-0.071289,-0.443604,63821941,-1,0,28,0,-0.000314,0.006336,0.250000,76.923073,5470,338,238,644,8395,7692,8055,7522,4,-0.000786,-0.072624,0.004990,6199,5077,5384,5218
63.835518,105,-2332,-8294,8772,-499,2144,0.117188,0.468750,-1.578125,-0.039999,-0.059999,0.009998,-0.068359,-0.001953,-0.575439,2.190430,-0.032471,0.483643,63835722,2,0,1,0,0.000565,0.006336,0.250000,76.923073,5470,-611,219,575,8448,7661,8071,7467,4,-0.000884,-0.072617,0.005043,5480,5769,6034,4595
63.845268,694,-21711,-6616,1902,-119,1558,0.117188,0.468750,-1.578125,-0.039999,-0.059999,0.009998,-0.075195,-0.001709,-0.576416,0.513184,0.060303,0.340576,63835722,2,0,1,0,0.000565,0.006336,0.250000,76.923073,5473,-110,164,644,8393,7706,8109,7442,4,-0.000805,-0.072647,0.004549,5833,5344,5756,4957
63.855042,-380,14499,-9054,-9515,-507,-1785,0.117188,0.468750,-1.578125,-0.039999,-0.059999,0.009998,-0.070801,-0.001709,-0.576172,-2.274170,-0.034424,-0.475586,63849357,-1,0,-2,0,0.000425,0.006336,0.250000,76.923073,5471,627,217,619,8334,7739,8106,7441,4,-0.000831,-0.072631,0.004870,6377,4871,5183,5451
63.864803,-941,12615,-5959,734,-359,-422,0.117188,0.468750,-1.578125,-0.019999,-0.049999,0.000000,-0.062012,-0.001221,-0.573730,0.228271,0.001709,-0.142822,63863014,1,0,-9,0,-0.000151,0.000000,0.250000,76.923073,5461,-119,201,448,8350,7789,8118,7453,4,0.010346,-0.052746,-0.003292,5742,5463,5627,5010
63.874565,41,-13606,-14663,9382,-396,2554,0.117188,0.468750,-1.578125,-0.019999,-0.049999,0.000000,-0.067139,-0.001465,-0.574219,2.339600,-0.007324,0.583740,63863014,1,0,-9,0,-0.000151,0.000000,0.250000,76.923073,5463,-663,209,461,8308,7816,8090,7448,4,0.010369,-0.052721,-0.003558,5372,5849,6014,4615
63.884335,-1927,-4156,-12176,-4435,-191,23,0.117188,0.468750,-1.578125,-0.019999,-0.049999,0.000000,-0.071289,-0.001221,-0.575195,-1.033936,0.042725,-0.034180,63876794,3,0,-17,-1,-0.000256,0.000000,0.250000,76.923073,5465,290,178,527,8262,7840,8070,7464,4,0.010424,-0.052693,-0.003779,6059,5122,5397,5280
63.894104,-3509,19298,-10182,-7386,-459,-2007,0.117188,0.468750,-1.578125,-0.009998,-0.039999,0.009998,-0.064453,-0.001221,-0.574707,-1.754395,-0.022705,-0.529785,63892346,15,1,20,0,-0.000332,0.006336,0.250000,66.666672,5469,440,217,489,8244,7826,8042,7505,4,0.013374,-0.039567,0.007440,6178,5066,5248,5382
63.903862,1074,-3198,-5532,7242,-588,856,0.117188,0.468750,-1.578125,-0.009998,-0.039999,0.009998,-0.061523,-0.001221,-0.573975,1.817139,-0.054199,0.169189,63892346,15,1,20,0,-0.000332,0.006336,0.250000,66.666672,5467,-555,235,432,8268,7824,8017,7489,4,0.013340,-0.039561,0.007558,5456,5809,5909,4692
63.913628,2847,-14766,-12314,5002,-451,1793,0.117188,0.468750,-1.578125,-0.009998,-0.039999,0.009998,-0.069092,-0.001465,-0.575439,1.270020,-0.020752,0.397949,63906013,1,0,11,0,-0.000081,0.006336,0.250000,76.923073,5470,-358,217,523,8257,7833,8017,7521,4,0.013400,-0.039589,0.007262,5631,5615,5831,4801
63.923397,-1093,1878,-9834,-9953,30,-1490,0.117188,0.468750,-1.578125,-0.009998,-0.039999,0.009998,-0.068848,-0.001465,-0.576660,-2.381104,0.096680,-0.403564,63918109,0,0,-6,0,0.000396,0.006336,0.250000,83.333336,5470,642,151,601,8245,7879,8075,7483,4,0.013445,-0.039573,0.007270,6331,4822,5209,5516
63.933167,-1532,8416,-10700,1647,167,176,0.109375,0.468750,-1.566406,-0.049999,-0.080000,0.039999,-0.061523,-0.000732,-0.574707,0.451172,0.130127,0.003174,63918109,0,0,-6,0,0.000396,0.025536,0.250000,83.333336,5497,-172,118,426,8271,7814,8063,7475,4,0.001572,-0.096605,0.034121,5671,5489,5748,5078
63.942940,-701,-10222,-9599,10084,-662,2114,0.109375,0.468750,-1.566406,-0.049999,-0.080000,0.039999,-0.062256,-0.000732,-0.574707,2.510742,-0.072266,0.476318,63943143,2,0,-14,0,-0.000301,0.025536,0.250000,40.000000,5497,-734,229,406,8261,7833,8085,7515,4,0.001554,-0.096633,0.034035,5342,5974,6057,4613
63.952690,2484,-7399,-14496,-2234,-98,592,0.109375,0.468750,-1.566406,-0.049999,-0.080000,0.039999,-0.068848,-0.000732,-0.576416,-0.496582,0.065430,0.104736,63943143,2,0,-14,0,-0.000301,0.025536,0.250000,40.000000,5499,132,154,521,8251,7874,8096,7525,4,0.001739,-0.096854,0.033398,5961,5254,5557,5222
63.962460,1959,6155,-10442,-9585,-126,-1843,0.109375,0.468750,-1.566406,0.009998,-0.049999,-0.019999,-0.066406,-0.000488,-0.576172,-2.291260,0.058594,-0.489746,63956776,4,0,6,0,0.000326,-0.012767,0.250000,76.923073,5456,590,174,500,8237,7883,8044,7511,4,0.035624,-0.035062,-0.022400,6246,4911,5165,5500
63.972221,-2280,8831,-10489,4274,-281,-211,0.109375,0.468750,-1.566406,0.009998,-0.049999,-0.019999,-0.060547,-0.000244,-0.575439,1.092285,0.020752,-0.091309,63970423,6,0,20,-1,0.000267,-0.012767,0.250000,76.923073,5455,-372,196,440,8256,7833,8034,7552,4,0.035590,-0.035226,-0.022185,5550,5636,5799,4833
63.981991,-1451,-6197,-10094,6784,-368,2020,0.109375,0.468750,-1.566406,0.009998,-0.049999,-0.019999,-0.067139,0.000000,-0.576416,1.705078,-0.000488,0.453369,63982267,0,0,2,0,0.000238,-0.012767,0.250000,90.909088,5458,-500,205,515,8253,7842,8037,7508,4,0.035627,-0.035036,-0.022406,5506,5698,5924,4702
63.991760,605,-2756,-13214,-7366,-305,-618,0.109375,0.468750,-1.566406,0.009998,-0.049999,-0.019999,-0.072754,-0.000244,-0.577881,-1.749512,0.014893,-0.190674,63982267,0,0,2,0,0.000238,-0.012767,0.250000,90.909088,5460,476,196,623,8227,7830,8063,7501,4,0.035686,-0.034859,-0.022603,6246,4950,5296,5346
64.001526,1508,12640,-8294,-4138,-298,-1632,0.109375,0.468750,-1.566406,-0.039999,-0.019999,0.019999,-0.065186,0.000244,-0.576904,-0.961426,0.016602,-0.438232,63995838,-3,0,-21,0,0.000131,0.012767,0.250000,76.923073,5483,209,155,552,8263,7801,8074,7492,4,-0.022620,-0.039802,0.017443,6016,5168,5501,5245
64.011284,-2474,2822,-5991,6100,-287,1471,0.109375,0.468750,-1.566406,-0.039999,-0.019999,0.019999,-0.064941,0.000244,-0.576172,1.538330,0.019287,0.319336,64009554,0,1,1,0,-0.000081,0.012767,0.250000,76.923073,5484,-473,154,513,8294,7738,8055,7535,4,-0.022653,-0.039777,0.017440,5514,5670,5966,4784
64.021049,-2131,-14940,-7046,1251,-581,1490,0.109375,0.468750,-1.566406,-0.039999,-0.019999,0.019999,-0.074463,0.000488,-0.577637,0.354248,-0.052490,0.323975,64021262,0,0,2,0,-0.000375,0.012767,0.250000,90.909088,5488,-93,190,624,8293,7770,8090,7545,4,-0.022589,-0.039979,0.017059,5868,5376,5731,4975
64.030815,2079,4738,-7955,-8310,-379,-1654,0.109375,0.457031,-1.566406,-0.019999,-0.070000,0.029999,-0.072021,0.000000,-0.577881,-1.979980,-0.003174,-0.443604,64021262,0,0,2,0,-0.000375,0.019151,0.250000,90.909088,5493,539,194,643,8292,7770,8099,7519,4,0.021488,-0.071538,0.024923,6332,4927,5296,5415
64.040581,-826,14585,-7156,-982,-514,-601,0.109375,0.457031,-1.566406,-0.019999,-0.070000,0.029999,-0.065430,0.000244,-0.575928,-0.190674,-0.036133,-0.186523,64034915,1,0,28,-1,-0.000060,0.019151,0.250000,76.923073,5490,9,210,545,8355,7758,8092,7492,4,0.021358,-0.071412,0.025393,5917,5359,5607,5075
64.050362,475,-8556,-11276,7310,-581,2231,0.109375,0.457031,-1.566406,-0.019999,-0.070000,0.029999,-0.069824,0.000000,-0.575928,1.833496,-0.052490,0.504883,64046589,2,0,-5,1,0.000116,0.019151,0.250000,90.909088,5493,-520,224,539,8352,7757,8057,7527,4,0.021355,-0.071521,0.025054,5553,5749,5971,4697
64.060127,669,-13572,-10241,-1747,-196,640,0.109375,0.457031,-1.566406,-0.019999,-0.029999,0.009998,-0.074463,-0.000244,-0.577393,-0.377686,0.041504,0.116455,64060407,0,0,-8,0,0.000474,0.006383,0.250000,76.923073,5481,88,157,612,8313,7814,8128,7464,4,-0.000377,-0.036691,0.007292,5960,5223,5613,5126
64.069878,-2452,17417,-9513,-7081,-468,-1985,0.109375,0.457031,-1.566406,-0.019999,-0.029999,0.009998,-0.067871,-0.000244,-0.576416,-1.679932,-0.024902,-0.524414,64060407,0,0,-8,0,0.000474,0.006383,0.250000,76.923073,5477,409,195,556,8253,7838,8119,7463,4,-0.000407,-0.036646,0.007526,6182,5047,5327,5350
64.079651,-360,3278,-12605,3526,-693,642,0.109375,0.457031,-1.566406,-0.019999,-0.029999,0.009998,-0.066406,-0.000488,-0.575439,0.909668,-0.079834,0.116943,64073953,0,0,-5,0,-0.000182,0.006383,0.250000,76.923073,5477,-306,226,489,8288,7792,8095,7502,4,-0.000447,-0.036633,0.007583,5664,5608,5778,4856
64.089417,2067,-16360,-13797,7198,-58,2360,0.109375,0.457031,-1.566406,-0.019999,-0.029999,0.009998,-0.072266,-0.000488,-0.576172,1.806152,0.075195,0.536377,64087775,2,0,7,1,0.000365,0.006383,0.250000,76.923073,5480,-514,141,562,8311,7786,8080,7504,4,-0.000413,-0.036676,0.007367,5497,5662,6024,4735
64.099190,-2984,2192,-12878,-7763,-187,-1000,0.109375,0.457031,-1.566406,-0.049999,-0.039999,0.009998,-0.074707,-0.000488,-0.577148,-1.846436,0.043701,-0.283936,64099413,2,0,9,0,-0.000081,0.006383,0.250000,90.909088,5481,507,143,615,8326,7803,8090,7497,4,-0.020061,-0.061379,0.005442,6248,4916,5328,5430
64.108940,-3894,13059,-7237,-5416,-647,-1423,0.109375,0.457031,-1.566406,-0.049999,-0.039999,0.009998,-0.069092,-0.000488,-0.575439,-1.273438,-0.068604,-0.387207,64099413,2,0,9,0,-0.000081,0.006383,0.250000,90.909088,5478,316,208,516,8301,7789,8070,7500,4,-0.020159,-0.061316,0.005794,6106,5143,5365,5296
64.118713,-2646,-13015,-8515,4175,-577,1850,0.109375,0.457031,-1.566406,-0.049999,-0.039999,0.009998,-0.073486,-0.000488,-0.575928,1.068115,-0.051514,0.411865,64112999,-4,0,-6,1,-0.000024,0.006383,0.250000,76.923073,5480,-302,197,494,8346,7747,8042,7529,4,-0.020140,-0.061352,0.005520,5652,5585,5801,4880
64.128479,3632,-7710,-7269,549,-446,1126,0.109375,0.457031,-1.566406,-0.019999,-0.049999,0.029999,-0.073975,-0.001465,-0.576172,0.182861,-0.019531,0.235107,64126702,-1,0,-5,0,0.000196,0.019151,0.250000,76.923073,5494,-49,205,541,8297,7795,8057,7541,4,0.010517,-0.054892,0.025997,5874,5403,5654,5043
64.138237,-98,8431,-8115,-9838,-174,-2018,0.109375,0.457031,-1.566406,-0.019999,-0.049999,0.029999,-0.071289,-0.001465,-0.576172,-2.353027,0.046875,-0.532471,64126702,-1,0,-5,0,0.000196,0.019151,0.250000,76.923073,5493,629,166,542,8298,7834,8078,7526,4,0.010519,-0.054820,0.026141,6326,4894,5201,5549
64.148003,-2722,2501,-10518,3245,-300,359,0.109375,0.457031,-1.566406,-0.019999,-0.049999,0.029999,-0.066406,-0.001465,-0.574463,0.841309,0.016113,0.047852,64140377,-1,0,-10,1,-0.000285,0.019151,0.250000,76.923073,5491,-276,183,440,8336,7816,8039,7556,4,0.010435,-0.054707,0.026408,5645,5595,5776,4946
64.157776,-2133,-13746,-10781,7850,-767,2048,0.109375,0.457031,-1.566406,-0.019999,-0.049999,0.029999,-0.070557,-0.001709,-0.575439,1.965576,-0.097900,0.460205,64154040,2,0,9,0,0.000301,0.019151,0.250000,76.923073,5492,-558,250,502,8319,7831,8029,7564,4,0.010497,-0.054807,0.026172,5525,5812,5960,4669
64.167549,1984,-218,-16318,-6466,-250,-584,0.109375,0.457031,-1.566406,-0.019999,-0.070000,0.009998,-0.074951,-0.002197,-0.576904,-1.529785,0.028320,-0.182373,64165775,1,0,15,1,0.000066,0.006383,0.250000,90.909088,5479,430,188,598,8312,7880,8053,7515,4,0.021457,-0.070130,0.004719,6214,5008,5341,5351
64.177299,242,8448,-8546,-5479,-246,-1442,0.109375,0.457031,-1.566406,-0.019999,-0.070000,0.009998,-0.068359,-0.001709,-0.575684,-1.288574,0.029297,-0.391846,64165775,1,0,15,1,0.000066,0.006383,0.250000,90.909088,5477,331,182,509,8317,7831,8051,7512,4,0.021353,-0.070123,0.005180,6094,5117,5368,5327
64.187065,-824,2239,-8603,7964,-370,1453,0.109375,0.457031,-1.566406,-0.019999,-0.070000,0.009998,-0.067383,-0.001709,-0.574951,1.993408,-0.000977,0.314941,64179612,-1,0,1,0,-0.000090,0.006383,0.250000,76.923073,5477,-578,201,450,8372,7763,8008,7556,4,0.021305,-0.070126,0.005250,5435,5802,5968,4701
64.196838,-1500,-12578,-10668,1630,-601,1089,0.097656,0.449219,-1.566406,-0.059999,-0.059999,0.000000,-0.075195,-0.001953,-0.576904,0.447021,-0.057373,0.226074,64193141,0,-1,-16,-1,0.000635,0.000000,0.250000,76.923073,5474,-98,208,576,8304,7814,8036,7532,4,-0.017549,-0.082778,-0.006196,5839,5402,5684,4969
64.206612,1164,5199,-5949,-8620,-444,-1375,0.097656,0.449219,-1.566406,-0.059999,-0.059999,0.000000,-0.074463,-0.002197,-0.577393,-2.055420,-0.019043,-0.375488,64206765,1,0,-1,0,0.000365,0.000000,0.250000,76.923073,5473,581,189,606,8281,7791,8067,7533,4,-0.017523,-0.082796,-0.006138,6320,4892,5231,5447
64.216362,846,10616,-8007,1758,-296,-468,0.097656,0.449219,-1.566406,-0.059999,-0.059999,0.000000,-0.065186,-0.001953,-0.575439,0.478271,0.017090,-0.154053,64206765,1,0,-1,0,0.000365,0.000000,0.250000,76.923073,5470,-169,168,496,8340,7761,8061,7514,4,-0.017673,-0.082814,-0.005376,5717,5460,5718,4983
64.226135,-2462,-4566,-12831,7754,-261,2142,0.097656,0.449219,-1.566406,-0.059999,-0.059999,0.000000,-0.067383,-0.002441,-0.575439,1.942139,0.025635,0.483154,64220429,3,0,13,0,0.000126,0.000000,0.250000,76.923073,5471,-555,168,494,8299,7784,8034,7517,4,-0.017673,-0.082792,-0.005541,5444,5735,5991,4712
64.235901,-370,-12522,-11683,-2194,-653,677,0.097656,0.449219,-1.566406,-0.019999,-0.059999,0.029999,-0.073730,-0.002686,-0.577148,-0.486572,-0.070068,0.125244,64232439,3,0,7,0,0.000414,0.019151,0.250000,83.333336,5493,142,243,589,8283,7832,8099,7473,4,0.016072,-0.063228,0.025369,6059,5269,5515,5127
64.245674,1388,11247,-10011,-6329,-425,-1887,0.097656,0.449219,-1.566406,-0.019999,-0.059999,0.029999,-0.068848,-0.002930,-0.576660,-1.496094,-0.014404,-0.500732,64246128,1,0,0,1,0.000068,0.019151,0.250000,76.923073,5491,392,216,555,8287,7829,8079,7469,4,0.016042,-0.063122,0.025665,6198,5089,5338,5337
64.255424,546,5795,-12171,4119,-396,490,0.097656,0.449219,-1.566406,-0.019999,-0.059999,0.029999,-0.063965,-0.002686,-0.575195,1.054688,-0.007324,0.079590,64246128,1,0,0,1,0.000068,0.019151,0.250000,76.923073,5489,-335,210,462,8334,7803,8066,7488,4,0.015941,-0.063013,0.025980,5631,5643,5808,4872
64.265198,-826,-13086,-14018,4694,-523,2016,0.097656,0.449219,-1.566406,-0.049999,-0.029999,-0.070000,-0.068604,-0.002930,-0.575928,1.195068,-0.038330,0.452148,64259453,3,0,-14,0,0.000103,-0.044688,0.250000,76.923073,5423,-345,205,510,8315,7810,8052,7502,4,-0.025795,-0.047454,-0.073349,5579,5556,5776,4779
64.274963,228,-5822,-11855,-5791,-135,-738,0.097656,0.449219,-1.566406,-0.049999,-0.029999,-0.070000,-0.070312,-0.002686,-0.576660,-1.364746,0.056396,-0.220215,64273277,3,0,-2,0,0.000085,-0.044688,0.250000,76.923073,5424,366,151,556,8209,7863,8066,7468,4,-0.025750,-0.047367,-0.073422,6067,4993,5336,5298
64.284721,-3384,13810,-10952,-2739,-331,-1338,0.097656,0.449219,-1.566406,-0.049999,-0.029999,-0.070000,-0.062744,-0.002686,-0.575439,-0.619629,0.008545,-0.366699,64273277,3,0,-2,0,0.000085,-0.044688,0.250000,76.923073,5420,117,177,467,8232,7793,8031,7440,4,-0.025814,-0.047882,-0.073077,5861,5228,5445,5144
64.295464,-774,-2744,-9061,6030,-867,1388,0.097656,0.449219,-1.566406,-0.049999,-0.029999,-0.070000,-0.063232,-0.002930,-0.574951,1.521240,-0.122314,0.298828,64286838,4,0,6,0,0.000423,-0.044688,0.250000,76.923073,5421,-465,252,444,8198,7767,8017,7454,4,-0.025842,-0.047834,-0.073077,5492,5705,5793,4692
64.304260,5922,-17326,-5238,614,-217,1174,0.097656,0.449219,-1.566406,-0.099998,-0.089998,0.169998,-0.069824,-0.002930,-0.576660,0.198975,0.036377,0.246582,64300497,1,0,14,0,0.000226,0.108528,0.250000,76.923073,5587,-48,161,495,8209,7847,8010,7491,4,-0.034214,-0.141508,0.160602,5914,5487,5754,5191
64.314034,164,9716,-8110,-8077,224,-1957,0.097656,0.449219,-1.566406,-0.099998,-0.089998,0.169998,-0.067139,-0.002686,-0.576904,-1.922852,0.144043,-0.517822,64314170,0,0,-1,0,0.000322,0.108528,0.250000,76.923073,5585,512,94,460,8269,7918,8122,7585,4,-0.034242,-0.141116,0.160988,6243,5059,5386,5650
64.323784,-4797,9562,-10401,1678,-562,-187,0.097656,0.449219,-1.566406,-0.099998,-0.089998,0.169998,-0.061279,-0.002686,-0.575195,0.458740,-0.047852,-0.085693,64314170,0,0,-1,0,0.000322,0.108528,0.250000,76.923073,5583,-174,201,353,8312,7933,8113,7670,4,-0.034450,-0.140107,0.161826,5778,5671,5740,5141
64.333549,-875,-15244,-15014,7525,-832,1989,0.097656,0.449219,-1.566406,0.039999,-0.059999,-0.059999,-0.065918,-0.003418,-0.576416,1.886230,-0.113770,0.445557,64327885,0,0,-16,0,0.000395,-0.038304,0.250000,76.923073,5428,-566,304,429,8320,7959,8092,7687,4,0.066043,-0.024462,-0.061984,5457,5828,5827,4598
64.343330,1996,-4058,-15421,-4034,-76,-283,0.097656,0.449219,-1.566406,0.039999,-0.059999,-0.059999,-0.070312,-0.003418,-0.578125,-0.935791,0.070801,-0.109131,64339552,2,0,0,0,0.000408,-0.038304,0.250000,90.909088,5430,235,202,547,8282,7938,8053,7550,4,0.066077,-0.024066,-0.062089,6012,5133,5394,5179
64.353096,-2736,15090,-9903,-7528,-272,-1848,0.097656,0.449219,-1.566406,0.039999,-0.059999,-0.059999,-0.065430,-0.003662,-0.577637,-1.788818,0.022949,-0.491211,64353231,1,0,10,1,-0.000205,-0.038304,0.250000,76.923073,5428,438,230,535,8259,7903,8000,7481,4,0.066057,-0.024393,-0.061982,6167,5013,5223,5307
64.362854,-1846,-4681,-8934,6248,-361,1253,0.097656,0.437500,-1.566406,-0.059999,-0.089998,0.000000,-0.063721,-0.003418,-0.577148,1.574463,0.001221,0.265869,64353231,1,0,10,1,-0.000205,0.000000,0.250000,76.923073,5470,-469,204,503,8312,7792,7953,7460,4,-0.001165,-0.107924,-0.006901,5534,5694,5908,4742
64.372612,-174,-15269,-5998,4230,-331,1682,0.097656,0.437500,-1.566406,-0.059999,-0.089998,0.000000,-0.069580,-0.003174,-0.578613,1.081787,0.008545,0.370605,64366976,0,0,8,0,-0.000192,0.000000,0.250000,76.923073,5471,-302,197,590,8288,7753,8008,7450,4,-0.001009,-0.107899,-0.007535,5691,5528,5840,4823
64.382385,860,8730,-13545,-9119,-78,-1436,0.097656,0.437500,-1.566406,-0.059999,-0.089998,0.000000,-0.071533,-0.002686,-0.579590,-2.177246,0.070312,-0.390625,64378703,-1,0,2,1,0.000376,0.000000,0.250000,90.909088,5472,601,158,661,8262,7784,8079,7423,4,-0.000909,-0.107884,-0.007727,6339,4828,5265,5454
64.392159,-1049,7249,-8733,-1822,-187,-496,0.097656,0.437500,-1.566406,-0.059999,-0.089998,0.000000,-0.065430,-0.002197,-0.577393,-0.395752,0.043701,-0.161133,64392323,-1,0,-15,0,0.000092,0.000000,0.250000,76.923073,5469,73,169,545,8327,7756,8082,7483,4,-0.001128,-0.107933,-0.007071,5912,5264,5570,5128
64.401909,-831,-4711,-7026,8430,-226,2077,0.097656,0.437500,-1.566406,-0.039999,-0.049999,0.029999,-0.066406,-0.001709,-0.577148,2.107178,0.034180,0.467041,64392323,-1,0,-15,0,0.000092,0.019151,0.250000,76.923073,5490,-619,170,531,8292,7725,8071,7507,4,-0.006175,-0.065571,0.025711,5438,5782,6072,4666
64.411682,-1770,-3283,-15087,-2626,-512,486,0.097656,0.437500,-1.566406,-0.039999,-0.049999,0.029999,-0.072998,-0.001709,-0.578369,-0.592041,-0.035645,0.078613,64405963,3,0,1,-3,-0.000311,0.019151,0.250000,76.923073,5493,161,208,618,8301,7765,8137,7505,4,-0.006094,-0.065758,0.025279,6062,5217,5541,5150
64.421448,-1876,17599,-8838,-3495,-285,-1275,0.097656,0.437500,-1.566406,-0.039999,-0.049999,0.029999,-0.066650,-0.001465,-0.577393,-0.804199,0.019775,-0.351318,64420256,0,1,15,0,0.000462,0.019151,0.250000,71.428566,5490,183,178,596,8281,7797,8121,7501,4,-0.006175,-0.065587,0.025694,6043,5188,5532,5195
64.431206,2504,2513,-10104,5200,-370,730,0.097656,0.437500,-1.566406,-0.059999,-0.080000,0.029999,-0.065918,-0.001221,-0.576660,1.318604,-0.000977,0.138184,64420256,0,1,15,0,0.000462,0.019151,0.250000,71.428566,5490,-404,190,521,8306,7780,8102,7482,4,-0.006632,-0.101532,0.023366,5599,5649,5901,4809
64.440971,-610,-7247,-11745,5104,-270,2140,0.097656,0.437500,-1.566406,-0.059999,-0.080000,0.029999,-0.070557,-0.001465,-0.577148,1.295166,0.023438,0.482422,64433344,1,0,6,0,-0.000605,0.019151,0.250000,76.923073,5492,-382,179,502,8291,7850,8162,7484,4,-0.006579,-0.101637,0.022890,5599,5637,5886,4844
64.450745,-1164,539,-11097,-8757,-385,-1070,0.097656,0.437500,-1.566406,-0.059999,-0.080000,0.029999,-0.075684,-0.001465,-0.578613,-2.088867,-0.004639,-0.301270,64447055,-1,0,2,0,0.000261,0.019151,0.250000,76.923073,5494,580,193,601,8244,7861,8171,7447,4,-0.006416,-0.101776,0.022371,6341,4919,5247,5467
64.460526,-2194,10952,-8976,-3358,-523,-1469,0.097656,0.437500,-1.566406,-0.059999,-0.080000,0.029999,-0.070801,-0.001465,-0.577148,-0.770752,-0.038330,-0.398682,64461182,0,0,-13,0,-0.000352,0.019151,0.250000,71.428566,5491,191,213,527,8326,7822,8076,7508,4,-0.006560,-0.101655,0.022874,6040,5243,5468,5211
64.470268,1140,-1346,-8985,6710,-649,1536,0.097656,0.437500,-1.566406,-0.019999,-0.059999,0.019999,-0.070801,-0.001709,-0.577148,1.687256,-0.069092,0.334961,64461182,0,0,-13,0,-0.000352,0.012767,0.250000,71.428566,5485,-497,245,523,8333,7805,8050,7495,4,0.016014,-0.062447,0.015578,5568,5748,5924,4698
64.480034,929,-14658,-4649,-418,-178,1242,0.097656,0.437500,-1.566406,-0.019999,-0.059999,0.019999,-0.078125,-0.001953,-0.578369,-0.052979,0.045898,0.263184,64472472,5,0,9,0,0.000292,0.012767,0.250000,90.909088,5488,23,182,626,8340,7816,8108,7483,4,0.016103,-0.062536,0.015132,5945,5287,5656,5062
64.489807,-873,3936,-10602,-8371,-98,-1462,0.097656,0.437500,-1.566406,-0.019999,-0.059999,0.019999,-0.078125,-0.001465,-0.578369,-1.994629,0.065430,-0.396973,64486021,-1,0,7,0,-0.000074,0.012767,0.250000,76.923073,5487,556,166,625,8362,7815,8068,7512,4,0.016086,-0.062549,0.015140,6309,4898,5289,5450
64.499580,-3666,9557,-11340,2447,-202,-124,0.097656,0.437500,-1.566406,-0.039999,-0.080000,0.009998,-0.071289,-0.000977,-0.576416,0.646484,0.040039,-0.070312,64499697,0,0,8,0,-0.000124,0.006383,0.250000,76.923073,5478,-200,173,522,8394,7765,8073,7493,4,0.010088,-0.089358,0.003632,5719,5480,5758,4953
64.509338,-2226,-11171,-10773,6449,-804,2234,0.097656,0.437500,-1.566406,-0.039999,-0.080000,0.009998,-0.075684,-0.001221,-0.576660,1.623535,-0.106934,0.505371,64499697,0,0,8,0,-0.000124,0.006383,0.250000,76.923073,5480,-440,256,538,8367,7731,8064,7521,4,0.010107,-0.089369,0.003241,5618,5703,5879,4718
64.519096,4220,-8954,-14643,-4319,-37,-28,0.097656,0.437500,-1.566406,-0.039999,-0.080000,0.009998,-0.082031,-0.001221,-0.577637,-1.005371,0.080322,-0.046875,64513381,-3,0,-3,-1,-0.000042,0.006383,0.250000,76.923073,5482,319,151,617,8349,7790,8074,7509,4,0.010207,-0.089379,0.002675,6122,5054,5458,5292
64.528862,-1469,13530,-9832,-5843,-106,-1695,0.089844,0.429688,-1.566406,-0.049999,-0.059999,0.019999,-0.075439,-0.000732,-0.576904,-1.377441,0.063477,-0.453857,64527101,-3,0,-14,0,0.000491,0.012767,0.250000,76.923073,5487,380,145,568,8352,7766,8063,7513,4,-0.009148,-0.078845,0.014097,6142,5036,5399,5369
64.538628,-4181,2852,-5809,5143,-490,1111,0.089844,0.429688,-1.566406,-0.049999,-0.059999,0.019999,-0.072266,-0.000732,-0.575439,1.304688,-0.030273,0.231201,64527101,-3,0,-14,0,0.000491,0.012767,0.250000,76.923073,5484,-371,198,479,8343,7758,8054,7519,4,-0.009266,-0.078789,0.014359,5601,5646,5845,4842
64.548393,1402,-20451,-7279,5549,-765,2179,0.089844,0.429688,-1.566406,-0.049999,-0.059999,0.019999,-0.076904,-0.000977,-0.576172,1.403809,-0.097412,0.491943,64540771,-3,0,-3,-1,0.000643,0.012767,0.250000,76.923073,5486,-368,236,526,8321,7802,8059,7533,4,-0.009203,-0.078866,0.013984,5655,5650,5842,4795
64.558159,3796,2371,-13008,-6268,78,-1248,0.089844,0.429688,-1.566406,-0.049999,-0.059999,0.019999,-0.077637,-0.000732,-0.577148,-1.481201,0.108398,-0.344727,64554416,5,0,18,0,0.000195,0.012767,0.250000,76.923073,5486,426,121,571,8262,7837,8106,7507,4,-0.009132,-0.078885,0.013927,6158,4984,5384,5416
64.567947,-3271,15845,-7615,-2848,-453,-747,0.078125,0.429688,-1.558594,-0.070000,-0.129999,0.009998,-0.070312,-0.000977,-0.575439,-0.646240,-0.021240,-0.222412,64568143,3,0,5,0,-0.000080,0.006415,0.250000,76.923073,5481,180,203,460,8303,7823,8068,7531,4,0.012049,-0.147485,-0.000370,5981,5267,5440,5234
64.577690,-2128,-11239,-14366,7940,-525,1961,0.078125,0.429688,-1.558594,-0.070000,-0.129999,0.009998,-0.070312,-0.001221,-0.575195,1.987549,-0.038818,0.438721,64568143,3,0,5,0,-0.000080,0.006415,0.250000,76.923073,5482,-539,217,436,8323,7789,8048,7547,4,0.012008,-0.147472,-0.000378,5472,5798,5927,4729
64.587456,-698,-10967,-11879,405,-514,632,0.078125,0.429688,-1.558594,-0.070000,-0.129999,0.009998,-0.073730,-0.001465,-0.576660,0.147949,-0.036133,0.114258,64579797,0,0,-4,0,0.000050,0.006415,0.250000,90.909088,5483,-9,216,528,8271,7880,8047,7528,4,0.012217,-0.147471,-0.000876,5893,5378,5600,5059
64.597229,323,14685,-12152,-8746,-414,-1989,0.078125,0.429688,-1.558594,-0.039999,-0.049999,0.039999,-0.069824,-0.001709,-0.576660,-2.086182,-0.011719,-0.525635,64593539,3,0,-6,1,0.000193,0.025664,0.250000,76.923073,5503,561,193,532,8298,7883,8040,7494,4,-0.006195,-0.066358,0.035458,6302,4976,5235,5497
64.606995,362,3396,-8519,3103,-372,300,0.078125,0.429688,-1.558594,-0.039999,-0.049999,0.039999,-0.064697,-0.001465,-0.575195,0.806641,-0.001465,0.033203,64593539,3,0,-6,1,0.000193,0.025664,0.250000,76.923073,5501,-259,185,452,8283,7854,8056,7543,4,-0.006290,-0.066163,0.035806,5674,5588,5779,4961
64.616760,-1780,-8613,-15168,8565,-226,2260,0.078125,0.429688,-1.558594,-0.039999,-0.049999,0.039999,-0.066162,-0.001709,-0.575684,2.140137,0.034180,0.511719,64609503,14,0,-1,0,0.000295,0.025664,0.250000,66.666672,5501,-609,167,486,8327,7842,8052,7539,4,-0.006251,-0.066223,0.035704,5431,5806,6056,4709
64.626526,-2984,3396,-13319,-6494,-727,-826,0.078125,0.429688,-1.558594,-0.039999,-0.049999,0.039999,-0.069580,-0.002197,-0.577148,-1.536377,-0.088135,-0.241699,64620945,6,0,10,0,0.000056,0.025664,0.250000,90.909088,5502,407,237,508,8234,7911,8131,7509,4,-0.006149,-0.066351,0.035489,6211,5127,5300,5368
64.636292,-34,13601,-9474,-5893,-486,-1778,0.078125,0.417969,-1.558594,-0.049999,-0.109999,-0.019999,-0.063477,-0.002197,-0.575928,-1.389648,-0.029297,-0.474121,64634531,5,0,11,1,-0.000675,-0.012831,0.250000,76.923073,5459,354,224,435,8216,7934,8100,7468,4,0.017952,-0.117964,-0.027599,6085,5149,5267,5333
64.646049,2756,-3301,-4875,8347,-634,1492,0.078125,0.417969,-1.558594,-0.049999,-0.109999,-0.019999,-0.060791,-0.002441,-0.575439,2.086914,-0.065430,0.324219,64634531,5,0,11,1,-0.000675,-0.012831,0.250000,76.923073,5458,-612,245,390,8236,7890,8013,7511,4,0.017875,-0.118038,-0.027270,5393,5868,5912,4657
64.655815,-510,-11026,-7909,2571,-316,1312,0.078125,0.417969,-1.558594,-0.049999,-0.109999,-0.019999,-0.066406,-0.002441,-0.576904,0.676758,0.012207,0.280273,64648215,5,0,-8,0,0.000078,-0.012831,0.250000,76.923073,5460,-188,202,494,8238,7863,8032,7507,4,0.018061,-0.117866,-0.027930,5716,5488,5697,4937
64.665611,-502,8309,-8573,-9753,-220,-1854,0.078125,0.417969,-1.558594,-0.129999,-0.089998,0.109999,-0.066895,-0.002441,-0.578125,-2.332031,0.035645,-0.492676,64661796,3,0,-4,0,0.000102,0.070576,0.250000,76.923073,5548,648,141,573,8221,7893,8012,7498,4,-0.059408,-0.153454,0.100115,6392,4903,5276,5619
64.675346,-2163,3771,-10587,4319,-130,653,0.078125,0.417969,-1.558594,-0.129999,-0.089998,0.109999,-0.059082,-0.002197,-0.576172,1.103516,0.057617,0.119385,64661796,3,0,-4,0,0.000102,0.070576,0.250000,76.923073,5545,-343,128,434,8330,7839,8046,7568,4,-0.059714,-0.152554,0.101313,5609,5661,5914,4994
64.685112,1290,-6408,-13010,8840,-632,2122,0.078125,0.417969,-1.558594,-0.129999,-0.089998,0.109999,-0.060791,-0.002441,-0.576172,2.207275,-0.064941,0.478027,64677679,9,0,7,0,-0.000281,0.070576,0.250000,66.666672,5547,-634,198,433,8307,7876,8120,7641,4,-0.059658,-0.152710,0.101052,5455,5918,6071,4742
64.694885,1108,-12264,-9643,-4535,-276,98,0.078125,0.417969,-1.558594,-0.129999,-0.089998,0.109999,-0.066895,-0.003174,-0.578125,-1.058105,0.021973,-0.016113,64691137,3,0,14,1,0.000182,0.070576,0.250000,76.923073,5549,298,155,562,8302,7944,8127,7579,4,-0.059300,-0.153467,0.100120,6150,5166,5509,5369
64.704666,-1724,7784,-9827,-7146,-518,-1850,0.078125,0.417969,-1.558594,0.000000,-0.070000,-0.080000,-0.062256,-0.003418,-0.577393,-1.695557,-0.037109,-0.491699,64704864,1,0,2,-1,-0.000200,-0.051328,0.250000,76.923073,5418,420,251,524,8301,7927,8115,7602,4,0.037934,-0.053520,-0.083627,6154,5036,5205,5275
64.714409,-1863,3053,-8902,6486,-791,675,0.078125,0.417969,-1.558594,0.000000,-0.070000,-0.080000,-0.056885,-0.003906,-0.576172,1.632568,-0.103760,0.124756,64704864,1,0,2,-1,-0.000200,-0.051328,0.250000,76.923073,5416,-510,293,534,8362,7832,7969,7538,4,0.037818,-0.054037,-0.083350,5529,5716,5836,4581
64.724174,505,-15671,-9304,5597,-427,2253,0.078125,0.417969,-1.558594,0.000000,-0.070000,-0.080000,-0.062988,-0.004395,-0.577148,1.415527,-0.014893,0.510010,64716565,0,0,-7,2,0.000117,-0.051328,0.250000,90.909088,5419,-416,246,609,8340,7787,7978,7424,4,0.037840,-0.053475,-0.083686,5603,5582,5843,4646
64.733963,2072,-2641,-13775,-8345,-37,-961,0.078125,0.417969,-1.566406,-0.049999,-0.109999,0.009998,-0.065674,-0.004150,-0.578369,-1.988281,0.080322,-0.274658,64730195,-2,-3,-21,-1,-0.000854,0.006383,0.250000,76.923073,5475,550,178,689,8296,7783,8015,7345,4,0.018315,-0.119829,0.002041,6334,4867,5304,5393
64.743729,-2790,15004,-7156,-2619,-119,-1094,0.078125,0.417969,-1.566406,-0.049999,-0.109999,0.009998,-0.056885,-0.003662,-0.576172,-0.590332,0.060303,-0.307129,64743855,7,0,11,0,0.000165,0.006383,0.250000,76.923073,5472,109,185,564,8359,7771,8050,7414,4,0.018050,-0.119841,0.003128,5961,5243,5546,5136
64.753471,-4027,-4931,-8797,7946,-307,1983,0.078125,0.417969,-1.566406,-0.049999,-0.109999,0.009998,-0.056152,-0.003174,-0.575195,1.989014,0.014404,0.444092,64743855,7,0,11,0,0.000165,0.006383,0.250000,76.923073,5472,-601,206,505,8290,7761,8056,7454,4,0.017943,-0.119853,0.003195,5445,5790,6003,4648
64.763237,2766,-15377,-7634,693,-414,1510,0.078125,0.406250,-1.566406,-0.080000,-0.080000,0.019999,-0.062744,-0.003174,-0.576416,0.218262,-0.011719,0.328613,64757569,3,0,11,0,0.000124,0.012767,0.250000,76.923073,5481,-77,198,573,8289,7800,8124,7438,4,-0.023389,-0.111715,0.013098,5853,5388,5681,5000
64.773010,5044,9552,-9709,-8763,281,-1896,0.078125,0.406250,-1.566406,-0.080000,-0.080000,0.019999,-0.060791,-0.002197,-0.576660,-2.090332,0.157959,-0.502930,64771463,3,0,8,0,0.000669,0.012767,0.250000,76.923073,5480,543,97,574,8254,7825,8104,7465,4,-0.023380,-0.111693,0.013280,6219,4877,5314,5508
64.782776,-2906,12193,-6771,1776,-248,78,0.078125,0.406250,-1.566406,-0.080000,-0.080000,0.019999,-0.054688,-0.001709,-0.574463,0.482666,0.028809,-0.020996,64782941,3,0,-8,-2,-0.000678,0.012767,0.250000,90.909088,5478,-199,167,439,8300,7792,8107,7512,4,-0.023629,-0.111562,0.013977,5674,5517,5720,4999
64.792534,-1836,-16331,-16367,7264,-340,2292,0.078125,0.406250,-1.566406,-0.080000,-0.080000,0.019999,-0.058594,-0.001709,-0.574951,1.822510,0.006348,0.519531,64782941,3,0,-8,-2,-0.000678,0.012767,0.250000,90.909088,5479,-542,180,468,8273,7817,8079,7543,4,-0.023572,-0.111634,0.013524,5457,5755,5968,4734
64.802307,299,-4860,-15774,-4827,-276,-309,0.078125,0.406250,-1.566406,-0.019999,-0.080000,-0.049999,-0.063232,-0.001953,-0.576416,-1.129395,0.021973,-0.115479,64798572,4,0,-6,-2,-0.000378,-0.031920,0.250000,66.666672,5434,286,205,542,8219,7850,8116,7480,4,0.026739,-0.074640,-0.054886,6052,5105,5357,5220
64.812080,-1380,17199,-10011,-7578,-536,-1976,0.078125,0.406250,-1.566406,-0.019999,-0.080000,-0.049999,-0.058350,-0.001709,-0.575928,-1.801025,-0.041504,-0.522461,64812208,5,0,12,0,-0.000138,-0.031920,0.250000,76.923073,5432,441,239,512,8242,7799,8047,7471,4,0.026708,-0.074923,-0.054512,6168,5033,5207,5318
64.821831,2253,-711,-11274,6514,-520,1320,0.078125,0.406250,-1.566406,-0.019999,-0.080000,-0.049999,-0.054688,-0.001709,-0.574219,1.639404,-0.037598,0.282227,64812208,5,0,12,0,-0.000138,-0.031920,0.250000,76.923073,5432,-526,238,413,8285,7780,7992,7470,4,0.026579,-0.075160,-0.054239,5434,5765,5842,4685
64.831596,63,-13680,-15821,5346,130,1920,0.066406,0.406250,-1.558594,-0.080000,-0.139999,0.070000,-0.060791,-0.001465,-0.575684,1.354248,0.121094,0.428711,64825858,5,0,15,0,-0.000010,0.044912,0.250000,76.923073,5519,-388,132,492,8229,7835,7970,7443,4,0.009232,-0.164938,0.060078,5584,5640,5946,4905
64.841370,-2261,9113,-8331,-9016,-228,-1573,0.066406,0.406250,-1.558594,-0.080000,-0.139999,0.070000,-0.062012,-0.001465,-0.576660,-2.152100,0.033691,-0.424072,64839573,0,0,2,0,0.000298,0.044912,0.250000,76.923073,5520,581,180,547,8238,7862,8065,7458,4,0.009382,-0.165009,0.059851,6331,4962,5255,5530
64.851128,-3239,12186,-7617,-2081,-625,-1107,0.066406,0.406250,-1.558594,-0.080000,-0.139999,0.070000,-0.056152,-0.000977,-0.574951,-0.458984,-0.063232,-0.310303,64839573,0,0,2,0,0.000298,0.044912,0.250000,76.923073,5517,78,230,448,8264,7850,8057,7561,4,0.009095,-0.164673,0.060865,5958,5400,5523,5185
64.860901,-424,-17182,-5280,4345,-719,2046,0.066406,0.406250,-1.558594,-0.080000,-0.139999,0.070000,-0.061768,-0.000977,-0.575684,1.109863,-0.086182,0.459473,64853232,0,1,-20,0,0.000333,0.044912,0.250000,76.923073,5519,-322,244,429,8354,7831,8057,7592,4,0.009197,-0.165010,0.059901,5678,5704,5788,4904
64.870667,-1500,-6015,-9196,-1983,-89,529,0.066406,0.406250,-1.558594,-0.019999,-0.029999,0.019999,-0.062256,-0.000488,-0.576172,-0.435059,0.067627,0.089111,64864917,-1,0,-1,-1,0.000235,0.012831,0.250000,90.909088,5486,77,147,488,8298,7868,8082,7576,4,-0.000410,-0.037225,0.017709,5888,5291,5571,5192
64.880432,-2977,15080,-9378,-8386,-418,-2000,0.066406,0.406250,-1.558594,-0.019999,-0.029999,0.019999,-0.057861,-0.000488,-0.575928,-1.998291,-0.012695,-0.528320,64878615,2,1,18,1,-0.000363,0.012831,0.250000,76.923073,5484,488,191,505,8317,7853,8034,7556,4,-0.000416,-0.037150,0.017876,6216,5021,5256,5441
64.890190,-517,-885,-9366,6072,-414,533,0.066406,0.406250,-1.558594,-0.019999,-0.029999,0.019999,-0.053711,-0.000488,-0.574951,1.531494,-0.011719,0.090088,64878615,2,1,18,1,-0.000363,0.012831,0.250000,76.923073,5483,-508,190,426,8298,7804,8034,7582,4,-0.000458,-0.037073,0.018031,5471,5763,5920,4776
64.899956,1498,-12107,-13415,7005,-597,2251,0.066406,0.398438,-1.558594,-0.080000,-0.099998,0.009998,-0.059570,-0.000732,-0.576172,1.759277,-0.056396,0.509521,64892281,0,0,1,-1,-0.000440,0.006415,0.250000,76.923073,5478,-509,214,494,8287,7845,8068,7532,4,-0.012593,-0.127804,0.002411,5516,5742,5933,4719
64.909729,1393,-1128,-12934,-8096,85,-773,0.066406,0.398438,-1.558594,-0.080000,-0.099998,0.009998,-0.061523,-0.000732,-0.577148,-1.927490,0.110107,-0.228760,64905974,-2,0,-2,0,0.000495,0.006415,0.250000,76.923073,5478,509,119,553,8235,7870,8126,7489,4,-0.012468,-0.127833,0.002143,6198,4925,5310,5477
64.919502,-2496,7943,-6700,-3212,-577,-1161,0.066406,0.398438,-1.558594,-0.080000,-0.099998,0.009998,-0.054443,-0.000488,-0.575439,-0.735107,-0.051514,-0.323486,64919659,1,0,-6,0,0.000182,0.006415,0.250000,76.923073,5476,138,208,449,8260,7847,8091,7486,4,-0.012672,-0.127779,0.003050,5945,5300,5455,5202
64.929253,-3068,-5927,-6221,8798,-708,1780,0.058594,0.398438,-1.566406,-0.070000,-0.039999,-0.039999,-0.054932,-0.000977,-0.575195,2.197021,-0.083496,0.394531,64919659,1,0,-6,0,0.000182,-0.025536,0.250000,76.923073,5437,-681,212,404,8243,7836,8048,7501,4,-0.037013,-0.069326,-0.043834,5307,5866,5970,4603
64.939026,3171,-9689,-9439,-601,-638,1124,0.058594,0.398438,-1.566406,-0.070000,-0.039999,-0.039999,-0.062500,-0.001465,-0.576660,-0.097656,-0.066406,0.234375,64933644,6,0,-5,0,-0.001522,-0.025536,0.250000,76.923073,5440,-5,207,486,8215,7853,8077,7488,4,-0.036931,-0.069040,-0.044335,5825,5346,5540,5047
64.948792,3509,3511,-7823,-8835,-13,-1654,0.058594,0.398438,-1.566406,-0.070000,-0.039999,-0.039999,-0.062256,-0.001465,-0.577148,-2.107910,0.086182,-0.443848,64933644,6,0,-5,0,-0.001522,-0.025536,0.250000,76.923073,5438,541,121,509,8242,7853,8066,7495,4,-0.036898,-0.069079,-0.044333,6160,4886,5224,5480
64.958580,-2386,11065,-11227,2547,-494,-211,0.058594,0.398438,-1.566406,-0.070000,-0.039999,-0.039999,-0.056641,-0.001709,-0.575684,0.670898,-0.031250,-0.091553,64958752,5,-1,25,1,0.000507,-0.025536,0.250000,40.000000,5437,-254,186,425,8251,7771,7989,7495,4,-0.037003,-0.069273,-0.043928,5601,5535,5697,4913
64.968315,-2957,-10074,-16289,6627,-453,2029,0.058594,0.398438,-1.566406,-0.070000,-0.099998,0.099998,-0.061768,-0.002197,-0.576172,1.666992,-0.021240,0.455322,64958752,5,-1,25,1,0.000507,0.063839,0.250000,40.000000,5534,-483,203,466,8229,7816,8045,7488,4,-0.003979,-0.127924,0.092278,5569,5786,5964,4815
64.978081,-22,-6906,-12672,-5150,-660,-69,0.058594,0.398438,-1.566406,-0.070000,-0.099998,0.099998,-0.067383,-0.002930,-0.577637,-1.208252,-0.071777,-0.056885,64970385,0,0,6,0,0.000071,0.063839,0.250000,90.909088,5536,336,235,564,8290,7875,8050,7534,4,-0.003729,-0.128459,0.091555,6221,5182,5414,5325
64.987862,1294,13829,-8730,-6621,-573,-1976,0.058594,0.398438,-1.566406,-0.070000,-0.099998,0.099998,-0.062744,-0.003174,-0.577148,-1.567383,-0.050537,-0.522461,64984070,0,-1,-13,0,0.000292,0.063839,0.250000,76.923073,5533,402,224,517,8325,7887,8091,7523,4,-0.003777,-0.128041,0.092173,6234,5148,5348,5400
64.997612,1839,-5552,-11982,7028,-536,2131,0.058594,0.398438,-1.566406,-0.019999,-0.049999,-0.080000,-0.063965,-0.003174,-0.576416,1.764893,-0.041504,0.480225,64984070,0,-1,-13,0,0.000292,-0.051072,0.250000,76.923073,5412,-533,229,426,8404,7841,8088,7597,4,0.010220,-0.047586,-0.083249,5410,5737,5839,4660
65.007385,-919,-14386,-15124,5267,-422,2037,0.058594,0.398438,-1.566406,-0.019999,-0.049999,-0.080000,-0.065674,-0.003418,-0.576660,1.334961,-0.013672,0.457275,64999766,-4,-2,2,0,0.000053,-0.051072,0.250000,66.666672,5413,-400,213,457,8327,7827,8026,7542,4,0.010225,-0.047425,-0.083329,5509,5617,5773,4751
65.017143,154,3185,-10705,-8628,-398,-1471,0.058594,0.398438,-1.566406,-0.019999,-0.049999,-0.080000,-0.065430,-0.003662,-0.577393,-2.057373,-0.007812,-0.399170,65011425,0,0,12,1,0.000484,-0.051072,0.250000,90.909088,5413,527,211,499,8185,7867,8018,7437,4,0.010236,-0.047440,-0.083322,6184,4940,5140,5386
65.026939,-1449,15448,-9324,-2787,-420,-1233,0.058594,0.398438,-1.566406,-0.019999,-0.049999,-0.080000,-0.060059,-0.003418,-0.576172,-0.631348,-0.013184,-0.341064,65025132,-1,0,1,0,0.000052,-0.051072,0.250000,76.923073,5410,106,211,428,8217,7833,7996,7443,4,0.010200,-0.047915,-0.083067,5848,5270,5399,5121
65.036674,2001,-5638,-10494,8341,-462,2007,0.058594,0.386719,-1.566406,-0.049999,-0.109999,0.080000,-0.063232,-0.003662,-0.576172,2.085449,-0.023438,0.449951,65025132,-1,0,1,0,0.000052,0.051072,0.250000,76.923073,5521,-598,225,424,8245,7799,7953,7488,4,0.018316,-0.124291,0.072234,5469,5890,5996,4727
65.046440,2202,-14749,-8669,-1636,6,762,0.058594,0.386719,-1.566406,-0.049999,-0.109999,0.080000,-0.069092,-0.003418,-0.577881,-0.350342,0.090820,0.145996,65038762,1,0,-6,0,-0.000375,0.051072,0.250000,76.923073,5523,104,160,539,8289,7856,8037,7526,4,0.018520,-0.124671,0.071497,5979,5293,5605,5213
65.056206,-1613,14327,-13375,-8319,-132,-2064,0.058594,0.386719,-1.566406,-0.049999,-0.109999,0.080000,-0.065918,-0.003174,-0.577881,-1.981934,0.057129,-0.543945,65052491,-1,0,-3,0,-0.000082,0.051072,0.250000,76.923073,5522,533,176,526,8341,7904,8055,7534,4,0.018501,-0.124441,0.071880,6286,5006,5283,5511
65.065987,-2104,5255,-12360,4250,-629,180,0.058594,0.386719,-1.558594,-0.070000,-0.039999,0.029999,-0.060791,-0.002930,-0.576416,1.086670,-0.064209,0.003906,65066117,4,1,6,0,-0.000617,0.019247,0.250000,76.923073,5491,-351,211,446,8373,7814,8037,7591,4,-0.036783,-0.073395,0.025701,5615,5665,5812,4870
65.075737,3624,-15102,-10207,7270,-54,2454,0.058594,0.386719,-1.558594,-0.070000,-0.039999,0.029999,-0.065674,-0.002930,-0.577393,1.823975,0.076172,0.559082,65066117,4,1,6,0,-0.000617,0.019247,0.250000,76.923073,5493,-522,134,505,8337,7844,8057,7594,4,-0.036717,-0.073541,0.025328,5471,5704,6019,4776
65.085503,-1157,-1900,-13893,-6656,311,-773,0.058594,0.386719,-1.558594,-0.070000,-0.039999,0.029999,-0.069092,-0.002441,-0.578125,-1.575928,0.165283,-0.228760,65079839,0,0,3,0,0.000004,0.019247,0.250000,76.923073,5494,430,80,572,8317,7843,8093,7528,4,-0.036674,-0.073665,0.025075,6140,4960,5419,5455
65.095276,-4370,13993,-10344,-5331,-956,-1508,0.058594,0.386719,-1.558594,-0.109999,-0.099998,0.099998,-0.062744,-0.002930,-0.577148,-1.252441,-0.144043,-0.408203,65093488,2,0,8,0,0.000413,0.064159,0.250000,76.923073,5539,323,257,507,8311,7800,8106,7538,4,-0.037298,-0.149811,0.090894,6202,5238,5382,5332
65.105034,919,-9888,-6214,8203,-697,1667,0.058594,0.386719,-1.558594,-0.109999,-0.099998,0.099998,-0.062012,-0.003418,-0.576416,2.051758,-0.080811,0.366943,65093488,2,0,8,0,0.000413,0.064159,0.250000,76.923073,5539,-584,227,479,8336,7806,8062,7557,4,-0.037356,-0.149726,0.090986,5526,5872,6030,4726
65.114799,4051,-12206,-12694,-2118,-403,294,0.058594,0.386719,-1.558594,-0.109999,-0.099998,0.099998,-0.069824,-0.003662,-0.577881,-0.468018,-0.009033,0.031738,65107180,0,0,-9,0,-0.000278,0.064159,0.250000,76.923073,5541,168,190,640,8380,7831,8067,7580,4,-0.037110,-0.150506,0.089853,6114,5236,5607,5205
65.124573,2258,20593,-9270,-6137,-479,-1896,0.058594,0.386719,-1.558594,-0.109999,-0.099998,0.099998,-0.064941,-0.003906,-0.577881,-1.449219,-0.027588,-0.502930,65118859,-1,0,-8,0,0.000160,0.064159,0.250000,90.909088,5540,393,204,622,8377,7857,8123,7567,4,-0.037073,-0.150050,0.090596,6273,5095,5428,5362
65.134346,-2290,5760,-8963,3502,-477,-198,0.058594,0.386719,-1.558594,-0.049999,-0.089998,0.019999,-0.057373,-0.003906,-0.575684,0.904053,-0.027100,-0.088379,65132517,3,0,-2,0,0.000187,0.012831,0.250000,76.923073,5483,-311,230,492,8350,7886,8157,7513,4,0.007144,-0.103684,0.014037,5671,5619,5786,4854
65.144096,-1677,-13248,-14859,8072,-527,2414,0.058594,0.386719,-1.558594,-0.049999,-0.089998,0.019999,-0.064209,-0.004395,-0.576416,2.019775,-0.039307,0.549316,65132517,3,0,-2,0,0.000187,0.012831,0.250000,76.923073,5485,-567,239,542,8373,7837,8095,7482,4,0.007220,-0.103779,0.013318,5524,5783,5987,4644
65.153862,1106,2,-19190,-6512,-302,-285,0.058594,0.386719,-1.558594,-0.049999,-0.089998,0.019999,-0.070068,-0.004639,-0.577393,-1.540771,0.015625,-0.109619,65146306,7,-1,21,0,-0.000016,0.012831,0.250000,76.923073,5488,445,210,617,8377,7875,8123,7491,4,0.007338,-0.103832,0.012716,6259,5013,5333,5345
65.163635,1559,8708,-10945,-6477,-425,-1495,0.058594,0.378906,-1.558594,0.009998,-0.089998,-0.109999,-0.061279,-0.004395,-0.575928,-1.532227,-0.014404,-0.405029,65161882,2,-1,9,0,0.000305,-0.070576,0.250000,66.666672,5396,378,258,516,8383,7850,8111,7468,4,0.056915,-0.063135,-0.114339,6103,5053,5204,5222
65.173409,-461,4542,-10457,7164,-322,1251,0.058594,0.378906,-1.558594,0.009998,-0.089998,-0.109999,-0.060059,-0.004395,-0.574707,1.798096,0.010742,0.265381,65173964,-1,0,-7,1,0.000225,-0.070576,0.250000,83.333336,5396,-536,244,442,8339,7814,7999,7459,4,0.056829,-0.063342,-0.114246,5410,5726,5823,4623
65.183159,-1253,-13125,-10192,3090,-309,1586,0.058594,0.378906,-1.558594,0.009998,-0.089998,-0.109999,-0.068848,-0.004150,-0.575928,0.803467,0.013916,0.347168,65173964,-1,0,-7,1,0.000225,-0.070576,0.250000,83.333336,5399,-205,239,532,8302,7751,7984,7439,4,0.056946,-0.062261,-0.114791,5689,5446,5640,4819
65.192932,-201,2663,-10661,-8881,-298,-1445,0.058594,0.378906,-1.558594,0.009998,-0.089998,-0.109999,-0.065918,-0.004150,-0.576416,-2.119141,0.016602,-0.392822,65187291,0,0,-13,0,0.000255,-0.070576,0.250000,76.923073,5397,577,237,578,8244,7752,7965,7416,4,0.056985,-0.062565,-0.114619,6261,4867,5110,5348
65.202705,1167,10263,-5724,-660,-152,-937,0.046875,0.378906,-1.558594,-0.049999,-0.059999,0.009998,-0.059570,-0.003174,-0.574951,-0.112061,0.052246,-0.268799,65200902,6,0,12,-1,-0.000964,0.006415,0.250000,76.923073,5476,-5,165,489,8256,7761,7961,7428,4,-0.009286,-0.078008,0.005399,5833,5351,5607,5111
65.212456,618,-1962,-12706,9371,52,2321,0.046875,0.378906,-1.558594,-0.049999,-0.059999,0.009998,-0.062744,-0.002441,-0.574707,2.336914,0.102051,0.526611,65200902,6,0,12,-1,-0.000964,0.006415,0.250000,76.923073,5478,-654,132,474,8307,7762,8010,7509,4,-0.009311,-0.078015,0.005125,5345,5796,6084,4685
65.222221,-777,-15230,-9449,-2460,-47,616,0.046875,0.378906,-1.558594,-0.049999,-0.059999,0.009998,-0.067871,-0.001953,-0.576660,-0.551514,0.077881,0.110352,65214586,7,0,9,0,-0.000276,0.006415,0.250000,76.923073,5479,165,144,588,8271,7766,8076,7523,4,-0.009163,-0.078065,0.004732,5991,5170,5554,5199
65.231995,-588,10592,-10396,-7257,-270,-1732,0.046875,0.378906,-1.558594,-0.039999,-0.080000,0.009998,-0.062500,-0.001709,-0.575684,-1.722656,0.023438,-0.462891,65228287,0,1,13,-1,0.000519,0.006415,0.250000,76.923073,5478,459,184,524,8291,7823,8114,7488,4,0.010030,-0.089329,0.004402,6194,5021,5285,5410
65.241768,1466,6317,-14337,5518,-357,418,0.046875,0.378906,-1.558594,-0.039999,-0.080000,0.009998,-0.056641,-0.001221,-0.574219,1.396240,0.002197,0.062012,65241943,-3,1,-22,0,0.000158,0.006415,0.250000,76.923073,5476,-413,193,475,8309,7739,8019,7600,4,0.009901,-0.089313,0.004928,5557,5666,5869,4810
65.251518,595,-15610,-9390,5590,-305,2240,0.046875,0.378906,-1.558594,-0.039999,-0.080000,0.009998,-0.063721,-0.001465,-0.575439,1.413818,0.014893,0.506836,65241943,-3,1,-22,0,0.000158,0.006415,0.250000,76.923073,5479,-377,191,539,8320,7729,8017,7579,4,0.010003,-0.089327,0.004288,5616,5611,5880,4807
65.261292,-426,-4090,-12863,-7142,-191,-828,0.046875,0.378906,-1.558594,-0.039999,-0.080000,0.009998,-0.063965,-0.001465,-0.575928,-1.694580,0.042725,-0.242188,65255634,6,0,-3,-1,-0.000246,0.006415,0.250000,76.923073,5479,475,176,584,8262,7772,8022,7539,4,0.010055,-0.089323,0.004288,6231,4975,5310,5398
65.271065,-3767,14403,-8728,-1344,-298,-1102,0.046875,0.378906,-1.558594,-0.089998,-0.070000,0.029999,-0.053711,-0.001221,-0.574219,-0.279053,0.016602,-0.309082,65271443,11,1,11,0,-0.000691,0.019247,0.250000,66.666672,5489,30,164,469,8280,7816,8073,7497,4,-0.037486,-0.109120,0.024219,5860,5349,5586,5159
65.280815,-1665,-4858,-7070,7968,-867,1700,0.046875,0.378906,-1.558594,-0.089998,-0.070000,0.029999,-0.054443,-0.001709,-0.573730,1.994385,-0.122314,0.375000,65271443,11,1,11,0,-0.000691,0.019247,0.250000,66.666672,5490,-586,243,422,8309,7822,8065,7521,4,-0.037518,-0.109109,0.024158,5458,5865,5943,4692
65.290581,5822,-16843,-6835,235,-333,1176,0.046875,0.378906,-1.558594,-0.089998,-0.070000,0.029999,-0.061035,-0.001953,-0.575195,0.106445,0.008057,0.247070,65286999,6,0,17,0,0.001080,0.019247,0.250000,66.666672,5492,-27,174,503,8282,7874,8086,7525,4,-0.037350,-0.109315,0.023452,5847,5382,5639,5098
65.300354,578,7781,-9559,-8739,-93,-1859,0.046875,0.367188,-1.558594,-0.009998,-0.089998,0.000000,-0.056641,-0.001709,-0.575439,-2.084473,0.066650,-0.493896,65298836,4,0,-1,0,0.000063,0.000000,0.250000,90.909088,5470,539,187,494,8236,7883,8107,7515,4,0.040600,-0.080804,-0.004660,6230,4974,5203,5471
65.310112,-4186,8071,-10690,3131,-518,285,0.046875,0.367188,-1.558594,-0.009998,-0.089998,0.000000,-0.050049,-0.001953,-0.573486,0.813477,-0.037109,0.029541,65298836,4,0,-1,0,0.000063,0.000000,0.250000,90.909088,5468,-291,248,367,8285,7850,8036,7486,4,0.040430,-0.080915,-0.004142,5621,5665,5681,4903
65.319893,-608,-16559,-12686,7933,-671,2207,0.046875,0.367188,-1.558594,-0.009998,-0.089998,0.000000,-0.054932,-0.002441,-0.574219,1.985840,-0.074463,0.498779,65314224,7,4,-20,4,-0.000282,0.000000,0.250000,66.666672,5469,-581,268,420,8253,7878,7972,7500,4,0.040506,-0.080856,-0.004557,5457,5859,5900,4658
65.329643,3644,-4181,-17704,-4692,108,-411,0.046875,0.367188,-1.558594,-0.049999,-0.080000,-0.019999,-0.057861,-0.002441,-0.575684,-1.096436,0.115723,-0.140381,65327887,7,0,9,0,-0.000807,-0.012831,0.250000,76.923073,5456,284,139,499,8236,7897,8005,7476,4,0.001577,-0.092999,-0.025428,6004,5103,5406,5309
65.339409,-2001,15781,-10253,-6601,-381,-1743,0.046875,0.367188,-1.558594,-0.049999,-0.080000,-0.019999,-0.050781,-0.001953,-0.574707,-1.562500,-0.003662,-0.465576,65327887,7,0,9,0,-0.000807,-0.012831,0.250000,76.923073,5454,368,202,427,8235,7906,8007,7485,4,0.001494,-0.093183,-0.024773,6070,5123,5264,5357
65.349174,340,-407,-8787,6362,-213,730,0.046875,0.367188,-1.558594,-0.049999,-0.080000,-0.019999,-0.049072,-0.001953,-0.574219,1.602295,0.037354,0.138184,65341552,2,0,10,1,0.000339,-0.012831,0.250000,76.923073,5454,-508,177,392,8244,7859,7985,7525,4,0.001453,-0.093222,-0.024594,5415,5742,5884,4773
65.358940,465,-16564,-7112,3073,-237,1418,0.046875,0.367188,-1.558594,-0.049999,-0.080000,-0.019999,-0.056641,-0.001709,-0.576172,0.799316,0.031494,0.306152,65355209,5,0,10,0,0.000094,-0.012831,0.250000,76.923073,5455,-244,178,521,8230,7844,7975,7529,4,0.001638,-0.093028,-0.025303,5668,5492,5762,4896
65.368721,-355,10369,-10661,-9753,-472,-1752,0.046875,0.367188,-1.546875,-0.109999,-0.070000,0.099998,-0.056396,-0.001953,-0.576660,-2.332031,-0.025879,-0.467773,65366870,0,0,-4,0,0.000060,0.064645,0.250000,90.909088,5544,611,178,512,8252,7857,8065,7523,4,-0.053838,-0.124113,0.093260,6357,4981,5242,5594
65.378471,-657,9329,-5871,239,-571,-571,0.046875,0.367188,-1.546875,-0.109999,-0.070000,0.099998,-0.047852,-0.001709,-0.574707,0.107422,-0.050049,-0.179443,65366870,0,0,-4,0,0.000060,0.064645,0.250000,90.909088,5542,-107,192,374,8282,7860,8066,7592,4,-0.054066,-0.123220,0.094292,5789,5566,5668,5143
65.388237,144,-8083,-15127,9836,-115,2373,0.046875,0.367188,-1.546875,-0.109999,-0.070000,0.099998,-0.051025,-0.001953,-0.574951,2.450439,0.061279,0.539307,65380683,1,0,-14,-1,-0.000195,0.064645,0.250000,76.923073,5543,-732,132,376,8326,7865,8070,7648,4,-0.054041,-0.123526,0.093927,5306,5965,6155,4744
65.398010,-2410,-5846,-15315,-4184,-642,207,0.046875,0.367188,-1.546875,0.019999,-0.049999,-0.070000,-0.058105,-0.002441,-0.576660,-0.972412,-0.067383,0.010498,65394240,1,0,0,0,-0.000020,-0.045252,0.250000,76.923073,5430,222,266,479,8277,7951,8134,7602,4,0.043863,-0.026870,-0.071794,6014,5221,5324,5159
65.407784,-1532,13993,-8174,-9058,-917,-2096,0.046875,0.367188,-1.546875,0.019999,-0.049999,-0.070000,-0.053223,-0.002930,-0.576416,-2.162354,-0.134521,-0.551758,65407937,3,0,22,1,-0.000401,-0.045252,0.250000,76.923073,5429,514,309,453,8261,7930,8045,7574,4,0.043805,-0.027243,-0.071679,6237,5057,5073,5347
65.417534,3536,-107,-7752,6316,-477,529,0.046875,0.367188,-1.546875,0.019999,-0.049999,-0.070000,-0.049316,-0.003174,-0.575439,1.591064,-0.027100,0.089111,65407937,3,0,22,1,-0.000401,-0.045252,0.250000,76.923073,5428,-540,251,390,8259,7883,7977,7473,4,0.043759,-0.027555,-0.071590,5418,5792,5827,4673
65.427307,588,-9599,-12257,5235,-191,1828,0.046875,0.367188,-1.546875,0.019999,-0.049999,-0.070000,-0.055908,-0.003174,-0.576904,1.327148,0.042725,0.406250,65421612,0,0,4,0,-0.000025,-0.045252,0.250000,76.923073,5430,-429,210,484,8204,7864,7942,7460,4,0.043804,-0.027022,-0.071757,5517,5639,5826,4736
65.437080,-3237,-5196,-12031,-9929,-252,-1157,0.039062,0.367188,-1.558594,-0.059999,-0.070000,0.049999,-0.060791,-0.003174,-0.578369,-2.375000,0.027832,-0.322510,65435716,2,-3,-20,-1,0.000530,0.032080,0.250000,71.428566,5503,626,180,580,8236,7918,8017,7427,4,-0.011813,-0.094291,0.044390,6362,4897,5223,5528
65.446831,-3296,5191,-6464,-1710,-544,-1246,0.039062,0.367188,-1.558594,-0.059999,-0.070000,0.049999,-0.054443,-0.002686,-0.576904,-0.368408,-0.043457,-0.344238,65435716,2,-3,-20,-1,0.000530,0.032080,0.250000,71.428566,5501,55,215,574,8311,7803,8006,7533,4,-0.011958,-0.093986,0.044972,5978,5327,5597,5100
65.456596,2933,-2810,-6737,9810,-414,2253,0.039062,0.367188,-1.558594,-0.059999,-0.070000,0.049999,-0.054932,-0.002686,-0.576172,2.444092,-0.011719,0.510010,65450908,1,0,3,0,-0.000216,0.032080,0.250000,66.666672,5501,-719,197,545,8422,7696,8039,7555,4,-0.012027,-0.094000,0.044925,5404,5876,6142,4580
65.466370,2150,-11779,-6668,-3090,-2,686,0.039062,0.359375,-1.558594,-0.039999,-0.049999,0.000000,-0.064209,-0.002441,-0.577881,-0.705322,0.088867,0.127441,65464588,1,0,12,0,-0.000339,0.000000,0.250000,76.923073,5471,188,146,658,8348,7768,8083,7541,4,-0.006178,-0.063601,-0.004073,6036,5112,5563,5171
65.476128,-338,2013,-4958,-9378,-331,-1360,0.039062,0.359375,-1.558594,-0.039999,-0.049999,0.000000,-0.062744,-0.002197,-0.577148,-2.240479,0.008545,-0.372070,65464588,1,0,12,0,-0.000339,0.000000,0.250000,76.923073,5471,594,187,622,8370,7775,8123,7502,4,-0.006232,-0.063597,-0.003981,6334,4872,5229,5447
65.485901,-1302,5937,-10849,5849,-420,135,0.039062,0.359375,-1.558594,-0.039999,-0.049999,0.000000,-0.053467,-0.001953,-0.574707,1.477051,-0.013184,-0.007080,65478328,-2,0,9,0,0.000050,0.000000,0.250000,76.923073,5468,-485,198,470,8342,7748,8088,7487,4,-0.006381,-0.063618,-0.003389,5500,5715,5905,4750
65.495659,333,-10369,-16603,6512,-292,2329,0.039062,0.359375,-1.558594,-0.039999,-0.070000,0.009998,-0.058350,-0.002197,-0.575195,1.638916,0.018066,0.528564,65491911,-3,0,7,0,0.000110,0.006415,0.250000,76.923073,5476,-490,190,491,8282,7782,8124,7443,4,0.004559,-0.080929,0.005266,5509,5711,5933,4749
65.505440,2974,-6663,-18874,-8129,104,-466,0.039062,0.359375,-1.558594,-0.039999,-0.070000,0.009998,-0.064941,-0.001953,-0.576416,-1.935547,0.114746,-0.153809,65505610,3,0,-17,0,-0.001077,0.006415,0.250000,76.923073,5477,516,132,478,8230,7894,8123,7426,4,0.004641,-0.080973,0.004729,6174,4966,5257,5509
65.515190,-853,15161,-7646,-5036,-605,-2005,0.039062,0.359375,-1.558594,-0.039999,-0.070000,0.009998,-0.054688,-0.001953,-0.574951,-1.180420,-0.058350,-0.529541,65505610,3,0,-17,0,-0.001077,0.006415,0.250000,76.923073,5474,247,228,384,8207,7885,8097,7496,4,0.004534,-0.080927,0.005567,6001,5268,5330,5295
65.524956,-2614,5493,-9520,5939,-333,1124,0.039062,0.359375,-1.558594,-0.039999,-0.070000,0.009998,-0.055908,-0.001953,-0.574463,1.499023,0.008057,0.234375,65517363,3,0,1,0,-0.001229,0.006415,0.250000,90.909088,5474,-457,196,401,8206,7841,7988,7561,4,0.004488,-0.080931,0.005475,5489,5735,5859,4811
65.534729,166,-18408,-6705,2674,-597,1876,0.039062,0.359375,-1.558594,-0.039999,-0.059999,0.000000,-0.065918,-0.001953,-0.576416,0.701904,-0.056396,0.417969,65533039,-1,0,-3,-1,-0.000019,0.000000,0.250000,66.666672,5472,-182,225,528,8311,7823,7922,7611,4,-0.000827,-0.071939,-0.004747,5766,5495,5705,4920
65.544495,4919,5797,-10263,-10123,-176,-2218,0.039062,0.359375,-1.558594,-0.039999,-0.059999,0.000000,-0.062988,-0.002197,-0.577393,-2.422363,0.046387,-0.581543,65544641,4,0,26,1,-0.000757,0.000000,0.250000,90.909088,5471,650,170,586,8257,7852,8031,7570,4,-0.000762,-0.071961,-0.004543,6343,4838,5184,5517
65.554260,-1741,15323,-9061,741,-259,-217,0.039062,0.359375,-1.558594,-0.039999,-0.059999,0.000000,-0.055664,-0.001709,-0.575684,0.229980,0.026123,-0.093018,65544641,4,0,26,1,-0.000757,0.000000,0.250000,90.909088,5468,-121,177,491,8310,7792,8026,7536,4,-0.000886,-0.071990,-0.004016,5753,5433,5673,5011
65.564026,-2378,-13358,-12294,8343,-496,2312,0.039062,0.359375,-1.558594,-0.019999,-0.049999,0.000000,-0.059082,-0.001709,-0.575684,2.085938,-0.031738,0.524414,65561184,-10,0,-23,0,0.001823,0.000000,0.250000,62.499996,5470,-598,215,547,8306,7770,8054,7573,4,0.010448,-0.052729,-0.003137,5472,5771,6014,4621
65.573799,578,-8816,-15821,-5621,-435,100,0.039062,0.359375,-1.558594,-0.019999,-0.049999,0.000000,-0.064697,-0.002441,-0.577637,-1.323242,-0.016846,-0.015625,65573932,-3,0,-8,-1,0.000075,0.000000,0.250000,83.333336,5471,370,212,690,8336,7753,8007,7566,4,0.010557,-0.052694,-0.003447,6227,5014,5404,5237
65.583549,-936,19063,-5576,-8371,-680,-2105,0.039062,0.359375,-1.558594,-0.019999,-0.049999,0.000000,-0.058105,-0.002197,-0.576416,-1.994629,-0.076660,-0.553955,65573932,-3,0,-8,-1,0.000075,0.000000,0.250000,83.333336,5469,513,245,626,8340,7764,8043,7522,4,0.010493,-0.052727,-0.003090,6317,4966,5246,5345
65.593315,1000,3901,-7279,6405,-614,847,0.039062,0.359375,-1.558594,-0.019999,-0.049999,0.000000,-0.052979,-0.002441,-0.574707,1.612793,-0.060547,0.166748,65587604,0,1,-2,1,0.000147,0.000000,0.250000,76.923073,5467,-508,239,522,8385,7731,8076,7476,4,0.010399,-0.052765,-0.002825,5537,5734,5918,4677
65.603088,412,-17618,-15247,6586,-78,2545,0.039062,0.359375,-1.558594,-0.059999,-0.059999,0.019999,-0.058350,-0.002441,-0.575439,1.656982,0.070312,0.581299,65601288,7,0,17,1,-0.000548,0.012831,0.250000,76.923073,5482,-479,151,570,8333,7766,8121,7442,4,-0.017624,-0.084010,0.015177,5535,5642,5998,4751
65.612846,-1312,6347,-9228,-9454,-113,-1418,0.039062,0.359375,-1.558594,-0.059999,-0.059999,0.019999,-0.060547,-0.002441,-0.576172,-2.259033,0.061768,-0.386230,65601288,7,0,17,1,-0.000548,0.012831,0.250000,76.923073,5483,611,152,619,8302,7834,8133,7445,4,-0.017555,-0.084058,0.014968,6331,4848,5253,5498
65.622612,-3720,17861,-6992,-2563,-843,-1122,0.039062,0.359375,-1.558594,-0.059999,-0.059999,0.019999,-0.050781,-0.002441,-0.573730,-0.576660,-0.116455,-0.313965,65614924,4,0,7,1,-0.000048,0.012831,0.250000,76.923073,5480,88,253,452,8296,7809,8098,7481,4,-0.017770,-0.083874,0.015816,5947,5370,5464,5137
65.632385,2557,-11080,-16031,9572,-305,2090,0.039062,0.359375,-1.558594,-0.019999,-0.049999,0.009998,-0.051758,-0.002686,-0.573242,2.385986,0.014893,0.470215,65630613,2,-1,-8,-1,-0.000582,0.006415,0.250000,66.666672,5473,-724,200,412,8281,7842,8065,7530,4,0.010356,-0.053300,0.007216,5308,5920,6049,4613
65.642151,-949,-9932,-7512,-714,-213,845,0.039062,0.359375,-1.558594,-0.019999,-0.049999,0.009998,-0.059570,-0.002686,-0.574951,-0.125244,0.037354,0.166260,65642251,0,0,-12,0,-0.000128,0.006415,0.250000,90.909088,5476,11,185,498,8289,7871,8055,7499,4,0.010438,-0.053327,0.006809,5863,5350,5586,5103
65.651909,-3717,8117,-8277,-10836,-529,-2122,0.039062,0.359375,-1.558594,-0.019999,-0.049999,0.009998,-0.055420,-0.002930,-0.575195,-2.596436,-0.039795,-0.558105,65642251,0,0,-12,0,-0.000128,0.006415,0.250000,90.909088,5474,663,230,513,8273,7875,8063,7521,4,0.010450,-0.053304,0.007027,6361,4911,5099,5523
65.661682,-1682,510,-11843,4590,-416,231,0.039062,0.347656,-1.558594,-0.059999,-0.059999,0.000000,-0.050537,-0.002930,-0.573730,1.169678,-0.012207,0.016357,65655989,6,0,2,0,0.000555,0.000000,0.250000,76.923073,5467,-386,201,419,8311,7834,8038,7508,4,-0.017823,-0.082854,-0.004138,5545,5672,5807,4842
65.671448,1839,-13211,-12635,8885,-350,2377,0.039062,0.347656,-1.558594,-0.059999,-0.059999,0.000000,-0.056152,-0.002930,-0.574463,2.218262,0.003906,0.540283,65669636,0,-1,17,-1,-0.000197,0.000000,0.250000,76.923073,5469,-640,193,468,8308,7843,8023,7527,4,-0.017761,-0.082833,-0.004600,5386,5823,6019,4646
65.681213,1025,-264,-15519,-9101,-39,-1006,0.039062,0.347656,-1.558594,-0.059999,-0.059999,0.000000,-0.060791,-0.003174,-0.576172,-2.172852,0.079834,-0.285645,65669636,0,-1,17,-1,-0.000197,0.000000,0.250000,76.923073,5470,577,151,533,8216,7891,8110,7445,4,-0.017611,-0.082843,-0.004999,6251,4902,5221,5504
65.690971,-1454,10111,-6754,-5801,-475,-1628,0.039062,0.347656,-1.558594,-0.059999,-0.059999,0.000000,-0.054443,-0.003174,-0.574707,-1.367188,-0.026611,-0.437500,65683313,1,2,13,3,0.000528,0.000000,0.250000,76.923073,5468,316,211,448,8222,7868,8089,7490,4,-0.017728,-0.082862,-0.004468,6064,5169,5319,5318
65.700760,-2096,-8034,-5576,9820,-797,1811,0.027344,0.347656,-1.546875,-0.080000,-0.059999,0.139999,-0.053467,-0.003418,-0.573975,2.446533,-0.105225,0.402100,65697013,-2,0,-17,1,0.000236,0.090505,0.250000,76.923073,5572,-728,245,400,8311,7839,8000,7524,4,-0.034091,-0.101185,0.134902,5430,6059,6113,4684
65.710518,1849,-9866,-7279,841,-573,1124,0.027344,0.347656,-1.546875,-0.080000,-0.059999,0.139999,-0.061523,-0.003906,-0.575684,0.254395,-0.050537,0.234375,65710696,1,0,-6,-1,-0.000051,0.090505,0.250000,76.923073,5575,-79,217,502,8310,7928,8059,7588,4,-0.033877,-0.102321,0.134075,5923,5533,5728,5114
65.720268,2425,3727,-8299,-10729,-209,-1636,0.027344,0.347656,-1.546875,-0.080000,-0.059999,0.139999,-0.062012,-0.003906,-0.576416,-2.570312,0.038330,-0.439453,65710696,1,0,-6,-1,-0.000051,0.090505,0.250000,76.923073,5574,694,167,554,8359,7967,8121,7624,4,-0.033788,-0.102449,0.134039,6459,4924,5242,5669
65.730034,-1518,9704,-8885,2260,-494,-555,0.019531,0.339844,-1.558594,0.009998,-0.059999,-0.139999,-0.055664,-0.004150,-0.575195,0.600830,-0.031250,-0.175537,65724321,1,0,3,1,-0.000183,-0.089824,0.250000,76.923073,5372,-224,254,481,8414,7910,8107,7692,4,0.040446,-0.037020,-0.142451,5633,5469,5591,4793
65.739807,-566,-17910,-12301,6187,-555,2074,0.019531,0.339844,-1.558594,0.009998,-0.059999,-0.139999,-0.063232,-0.004639,-0.576172,1.559570,-0.046143,0.466309,65738620,0,0,10,0,-0.000160,-0.089824,0.250000,71.428566,5375,-450,266,492,8412,7833,8056,7559,4,0.040416,-0.035901,-0.142728,5490,5635,5751,4622
65.749565,-1167,-7328,-11735,-6499,-730,78,0.019531,0.339844,-1.558594,0.009998,-0.059999,-0.139999,-0.063721,-0.005127,-0.576660,-1.537598,-0.088867,-0.020996,65738620,0,0,10,0,-0.000160,-0.089824,0.250000,71.428566,5375,412,296,580,8293,7833,7997,7425,4,0.040372,-0.035804,-0.142791,6165,5002,5164,5167
65.759331,1454,12542,-8080,-7859,-542,-2107,0.019531,0.339844,-1.558594,0.009998,-0.059999,-0.139999,-0.058838,-0.004883,-0.575684,-1.869629,-0.042969,-0.554443,65751739,-4,-2,12,0,0.000350,-0.089824,0.250000,76.923073,5373,473,269,515,8263,7791,7927,7376,4,0.040347,-0.036542,-0.142610,6155,4971,5105,5259
65.769104,752,5871,-10378,7741,-202,1046,0.019531,0.339844,-1.558594,-0.029999,-0.029999,-0.009998,-0.053955,-0.004639,-0.574219,1.938965,0.040039,0.215332,65763414,-1,-1,-22,0,0.000212,-0.006415,0.250000,90.909088,5462,-600,192,423,8235,7755,7911,7423,4,-0.008936,-0.040877,-0.012183,5385,5810,5961,4690
65.778862,-2459,-12522,-13760,4481,-146,1915,0.019531,0.339844,-1.558594,-0.029999,-0.029999,-0.009998,-0.060547,-0.004395,-0.575684,1.143066,0.053711,0.427490,65777102,-2,0,-4,0,0.000081,-0.006415,0.250000,76.923073,5464,-341,181,513,8244,7799,7939,7441,4,-0.008870,-0.040808,-0.012454,5607,5576,5833,4838
65.788628,-1174,1209,-10778,-9927,-311,-1440,0.019531,0.339844,-1.558594,-0.029999,-0.029999,-0.009998,-0.064209,-0.004395,-0.576904,-2.374512,0.013428,-0.391602,65777102,-2,0,-4,0,0.000081,-0.006415,0.250000,76.923073,5464,643,201,591,8246,7799,8044,7484,4,-0.008823,-0.040782,-0.012600,6356,4855,5162,5481
65.798393,-659,11924,-10469,-1292,-411,-1442,0.019531,0.339844,-1.558594,-0.059999,-0.049999,0.039999,-0.055664,-0.003906,-0.575684,-0.266357,-0.010986,-0.392090,65790838,1,0,9,0,-0.000167,0.025664,0.250000,76.923073,5495,22,202,523,8298,7789,8020,7515,4,-0.022941,-0.076727,0.035876,5914,5360,5598,5106
65.808167,1059,-2199,-7946,7445,-329,1883,0.019531,0.339844,-1.558594,-0.059999,-0.049999,0.039999,-0.057617,-0.003662,-0.575195,1.866699,0.009033,0.419678,65802474,3,0,8,-1,0.000487,0.025664,0.250000,90.909088,5495,-551,194,492,8287,7761,8031,7509,4,-0.022989,-0.076788,0.035718,5488,5775,5993,4722
65.817947,1937,-18857,-4507,-1020,-58,1157,0.019531,0.339844,-1.558594,-0.059999,-0.049999,0.039999,-0.065674,-0.003662,-0.576904,-0.199951,0.075195,0.242432,65818144,-3,1,-4,0,-0.000227,0.025664,0.250000,66.666672,5498,61,154,596,8295,7799,8063,7511,4,-0.022861,-0.077099,0.035096,5948,5265,5643,5134
65.827698,252,10825,-11227,-8049,-167,-2111,0.019531,0.339844,-1.558594,-0.059999,-0.049999,0.039999,-0.061523,-0.003418,-0.576660,-1.916016,0.048584,-0.555420,65818144,-3,1,-4,0,-0.000227,0.025664,0.250000,66.666672,5496,507,169,601,8280,7844,8104,7529,4,-0.022881,-0.076959,0.035409,6274,4956,5318,5434
65.837456,-2160,8819,-13184,3031,-640,89,0.019531,0.339844,-1.558594,-0.019999,-0.049999,0.019999,-0.056885,-0.003418,-0.575439,0.789062,-0.066895,-0.018311,65829848,0,0,-7,-1,0.000295,0.012831,0.250000,90.909088,5481,-268,254,512,8360,7779,8087,7516,4,0.010500,-0.053880,0.016922,5727,5594,5746,4855
65.847229,2491,-14781,-11004,7787,-250,2502,0.019531,0.339844,-1.558594,-0.019999,-0.049999,0.019999,-0.062500,-0.003418,-0.575684,1.950195,0.028320,0.570801,65843511,-2,0,-4,0,0.000201,0.012831,0.250000,76.923073,5483,-552,203,543,8362,7790,8058,7535,4,0.010521,-0.053969,0.016619,5507,5745,6001,4677
65.856995,-98,-6170,-16134,-5913,420,-457,0.019531,0.339844,-1.558594,-0.019999,-0.049999,0.019999,-0.065918,-0.002930,-0.576904,-1.394531,0.191895,-0.151611,65857129,-2,0,4,0,-0.000055,0.012831,0.250000,76.923073,5484,383,107,628,8367,7827,8075,7489,4,0.010582,-0.054013,0.016444,6144,4974,5451,5365
65.866753,-4853,16058,-10592,-6856,-684,-1776,0.027344,0.328125,-1.558594,-0.049999,-0.039999,0.009998,-0.060547,-0.002930,-0.575928,-1.624756,-0.077637,-0.473633,65857129,-2,0,4,0,-0.000055,0.006415,0.250000,76.923073,5475,421,245,567,8333,7822,8093,7514,4,-0.020110,-0.061279,0.006364,6229,5067,5287,5315
65.876534,1670,1393,-14555,7081,-381,1176,0.027344,0.328125,-1.558594,-0.049999,-0.039999,0.009998,-0.058350,-0.002930,-0.574951,1.777832,-0.003662,0.247070,65870898,0,0,10,0,-0.000035,0.006415,0.250000,76.923073,5475,-521,203,516,8375,7756,8019,7525,4,-0.020173,-0.061235,0.006497,5508,5728,5957,4705
65.886292,2893,-15418,-6584,4084,-156,1813,0.027344,0.328125,-1.558594,-0.049999,-0.039999,0.009998,-0.064697,-0.002686,-0.575928,1.046143,0.051270,0.402588,65882644,-4,0,1,0,-0.000481,0.006415,0.250000,90.909088,5476,-282,169,591,8340,7772,8063,7507,4,-0.020109,-0.061301,0.006100,5691,5499,5851,4861
65.896065,801,9719,-10781,-10341,-78,-1473,0.027344,0.328125,-1.558594,-0.019999,-0.049999,0.019999,-0.065430,-0.002197,-0.576904,-2.475586,0.070312,-0.399658,65896240,-1,0,-12,-1,0.000219,0.012831,0.250000,76.923073,5484,684,173,627,8309,7781,8108,7492,4,0.010559,-0.054010,0.016471,6403,4809,5191,5531
65.905815,-3330,9272,-9022,-268,-392,-536,0.027344,0.328125,-1.558594,-0.019999,-0.049999,0.019999,-0.059326,-0.001953,-0.574951,-0.016357,-0.006348,-0.170898,65896240,-1,0,-12,-1,0.000219,0.012831,0.250000,76.923073,5481,-28,213,514,8357,7751,8040,7512,4,0.010456,-0.053926,0.016808,5868,5394,5607,5053
65.915588,-2087,-13814,-15055,9868,-359,2519,0.027344,0.328125,-1.558594,-0.019999,-0.049999,0.019999,-0.060303,-0.001709,-0.574707,2.458252,0.001709,0.574951,65909908,0,1,-4,0,-0.000019,0.012831,0.250000,76.923073,5482,-700,207,492,8298,7737,8007,7517,4,0.010438,-0.053947,0.016756,5379,5877,6076,4594
65.925362,860,-2077,-15301,-4062,-420,165,0.027344,0.328125,-1.558594,-0.019999,-0.049999,0.019999,-0.065918,-0.001953,-0.575684,-0.942627,-0.013184,0.000244,65923614,-1,0,7,0,-0.000490,0.012831,0.250000,76.923073,5484,266,216,549,8321,7820,8081,7461,4,0.010492,-0.054026,0.016453,6099,5174,5417,5244
65.935127,1606,8929,-9645,-8827,-276,-1789,0.027344,0.328125,-1.558594,-0.049999,-0.070000,-0.019999,-0.063965,-0.001465,-0.575684,-2.105957,0.021973,-0.476807,65935381,1,0,9,0,0.000103,-0.012831,0.250000,90.909088,5456,598,184,580,8327,7797,8031,7517,4,-0.003861,-0.084477,-0.025449,6298,4873,5193,5458
65.944878,1299,2415,-7516,7536,-368,869,0.027344,0.328125,-1.558594,-0.049999,-0.070000,-0.019999,-0.057861,-0.001221,-0.573730,1.888916,-0.000488,0.172119,65935381,1,0,9,0,0.000103,-0.012831,0.250000,90.909088,5455,-523,196,518,8438,7727,7935,7601,4,-0.004014,-0.084619,-0.024929,5482,5704,5945,4687
65.954643,-551,-9238,-14994,7031,-296,2125,0.027344,0.328125,-1.558594,-0.049999,-0.070000,-0.019999,-0.062012,-0.001221,-0.574951,1.765625,0.017090,0.478760,65948938,3,0,4,0,0.000708,-0.012831,0.250000,76.923073,5455,-465,186,598,8373,7691,7983,7563,4,-0.003909,-0.084525,-0.025293,5556,5616,5951,4695
65.964417,-2790,4274,-12206,-9221,-425,-1205,0.019531,0.328125,-1.546875,-0.099998,-0.049999,0.099998,-0.063477,-0.001221,-0.575439,-2.202148,-0.014404,-0.334229,65948938,3,0,4,0,0.000708,0.064645,0.250000,76.923073,5546,635,168,637,8333,7774,8063,7457,4,-0.056524,-0.102550,0.093755,6432,4897,5296,5557
65.974174,-255,11244,-6204,-2129,-738,-1316,0.019531,0.328125,-1.546875,-0.099998,-0.049999,0.099998,-0.054199,-0.001221,-0.573730,-0.470703,-0.090820,-0.361328,65972522,-2,0,-22,-1,0.000080,0.064645,0.250000,43.478260,5543,103,211,518,8337,7766,8070,7521,4,-0.056692,-0.101567,0.094704,6024,5360,5579,5207
65.983940,1157,-3404,-9483,9422,-392,2181,0.019531,0.328125,-1.546875,-0.099998,-0.049999,0.099998,-0.053223,-0.001465,-0.572754,2.349365,-0.006348,0.492432,65972522,-2,0,-22,-1,0.000080,0.064645,0.250000,43.478260,5543,-656,167,516,8356,7800,8111,7597,4,-0.056777,-0.101414,0.094814,5455,5866,6146,4703
65.993706,-3068,-12907,-8725,21,-510,1159,0.019531,0.328125,-1.546875,-0.099998,-0.049999,0.099998,-0.060303,-0.001709,-0.574463,0.054199,-0.035156,0.242920,65988460,13,0,8,0,-0.000426,0.064645,0.250000,66.666672,5545,14,183,603,8380,7824,8128,7614,4,-0.056570,-0.102174,0.094112,5985,5362,5707,5124
66.003479,-2673,17824,-9525,-6287,-873,-1586,0.027344,0.328125,-1.558594,0.000000,-0.049999,-0.070000,-0.052979,-0.002686,-0.573486,-1.485840,-0.123779,-0.427246,66001689,9,0,17,1,0.000685,-0.044912,0.250000,76.923073,5418,356,291,466,8316,7893,8159,7519,4,0.026951,-0.038220,-0.072207,6108,5139,5193,5230
66.013237,73,5584,-13550,5361,-599,-19,0.027344,0.328125,-1.558594,0.000000,-0.049999,-0.070000,-0.046631,-0.003174,-0.572266,1.357910,-0.056885,-0.044678,66001689,9,0,17,1,0.000685,-0.044912,0.250000,76.923073,5418,-462,259,357,8225,7929,8099,7406,4,0.026856,-0.038701,-0.071961,5452,5749,5740,4729
66.023003,-438,-13795,-10445,6386,-758,2218,0.027344,0.328125,-1.558594,0.000000,-0.049999,-0.070000,-0.054688,-0.003906,-0.573242,1.608154,-0.095703,0.501465,66015380,5,0,7,0,0.000143,-0.044912,0.250000,76.923073,5419,-476,287,393,8196,7944,8052,7385,4,0.026843,-0.038109,-0.072293,5481,5761,5749,4683
66.032776,571,-7342,-13638,-8234,-263,-880,0.027344,0.328125,-1.558594,-0.029999,-0.049999,0.019999,-0.058350,-0.004395,-0.575195,-1.961182,0.025146,-0.254883,66028999,0,-2,-17,0,0.000167,0.012831,0.250000,76.923073,5482,530,207,496,8156,7951,7988,7406,4,0.002119,-0.059341,0.016547,6251,5005,5208,5462
66.042534,-2938,13064,-7418,-3644,-313,-1704,0.027344,0.328125,-1.558594,-0.029999,-0.049999,0.019999,-0.050293,-0.004150,-0.574219,-0.840576,0.012939,-0.456055,66028999,0,-2,-17,0,0.000167,0.012831,0.250000,76.923073,5479,173,213,427,8231,7888,7965,7453,4,0.002061,-0.059206,0.017037,5965,5293,5419,5237
66.052299,-2825,-1508,-7507,7750,-839,1307,0.027344,0.328125,-1.558594,-0.029999,-0.049999,0.019999,-0.051025,-0.004639,-0.574219,1.941162,-0.115479,0.279053,66044662,11,-4,4,0,-0.000692,0.012831,0.250000,66.666672,5479,-582,287,419,8288,7905,7988,7512,4,0.002064,-0.059222,0.016988,5479,5883,5897,4655
66.062073,971,-9966,-13412,-4716,-850,76,0.027344,0.328125,-1.558594,-0.029999,-0.049999,0.019999,-0.063965,-0.004883,-0.576904,-1.102295,-0.118164,-0.021484,66056314,0,-1,7,0,0.000126,0.012831,0.250000,90.909088,5483,334,289,649,8303,7831,7989,7535,4,0.002236,-0.059427,0.016225,6247,5126,5367,5190
66.071846,5015,4387,-11149,-10089,283,-2040,0.007812,0.316406,-1.558594,-0.049999,-0.049999,0.000000,-0.060059,-0.004639,-0.577393,-2.414062,0.158447,-0.538086,66072056,1,0,15,0,0.000044,0.000000,0.250000,66.666672,5469,676,120,708,8392,7774,7958,7561,4,-0.014599,-0.069057,-0.004095,6385,4721,5260,5508
66.081596,-4353,15453,-8971,2373,-394,-257,0.007812,0.316406,-1.558594,-0.049999,-0.049999,0.000000,-0.052734,-0.004395,-0.575195,0.628418,-0.006836,-0.102783,66072056,1,0,15,0,0.000044,0.000000,0.250000,66.666672,5467,-210,211,574,8471,7687,7984,7514,4,-0.014752,-0.069057,-0.003577,5754,5477,5753,4882
66.091362,-2344,-13635,-9527,8524,-592,2482,0.007812,0.316406,-1.558594,-0.049999,-0.049999,0.000000,-0.058594,-0.004395,-0.575195,2.130127,-0.055176,0.565918,66083730,-3,0,0,0,0.000638,0.000000,0.250000,90.909088,5469,-588,239,596,8404,7711,8040,7506,4,-0.014740,-0.069036,-0.003986,5520,5755,6013,4586
66.101128,2300,-11075,-15585,-3931,-226,538,0.007812,0.316406,-1.558594,-0.019999,-0.049999,0.000000,-0.063721,-0.004395,-0.576172,-0.910645,0.034180,0.091309,66097481,-2,0,-21,0,0.000439,0.000000,0.250000,76.923073,5470,266,208,638,8380,7720,8063,7463,4,0.010479,-0.052705,-0.003412,6124,5109,5453,5192
66.110909,900,20110,-11951,-6771,-385,-2175,0.007812,0.316406,-1.558594,-0.019999,-0.049999,0.000000,-0.053467,-0.004150,-0.574951,-1.604004,-0.004639,-0.571045,66109132,3,0,7,0,0.000182,0.000000,0.250000,90.909088,5467,392,229,555,8317,7828,8091,7452,4,0.010413,-0.052752,-0.002866,6183,5074,5305,5304
66.120659,-2226,2871,-12387,6283,-313,1246,0.007812,0.316406,-1.558594,-0.019999,-0.049999,0.000000,-0.052734,-0.004150,-0.573730,1.583008,0.012939,0.264160,66109132,3,0,7,0,0.000182,0.000000,0.250000,90.909088,5467,-468,222,508,8364,7800,7987,7466,4,0.010343,-0.052763,-0.002828,5547,5700,5894,4725
66.130424,-1422,-20269,-16399,8550,-246,2639,0.007812,0.316406,-1.558594,-0.049999,-0.049999,0.009998,-0.060547,-0.004150,-0.575195,2.136475,0.029297,0.604248,66122805,5,0,9,0,-0.000455,0.006415,0.250000,76.923073,5475,-574,196,581,8378,7699,8007,7528,4,-0.014701,-0.069635,0.005860,5498,5728,6032,4640
66.140221,645,7391,-11455,-9794,-455,-1717,0.007812,0.316406,-1.558594,-0.049999,-0.049999,0.009998,-0.058350,-0.004395,-0.575684,-2.342041,-0.021729,-0.459229,66136388,6,1,20,1,0.000610,0.006415,0.250000,76.923073,5475,635,228,589,8299,7776,8072,7472,4,-0.014674,-0.069627,0.006007,6379,4892,5159,5468
66.149971,-2118,21125,-6781,-3827,-305,-1033,0.007812,0.316406,-1.558594,-0.049999,-0.049999,0.009998,-0.050293,-0.003662,-0.573730,-0.885254,0.014893,-0.292236,66150115,-1,0,1,0,-0.000634,0.006415,0.250000,76.923073,5472,186,203,452,8319,7829,8083,7437,4,-0.014815,-0.069546,0.006567,5973,5258,5422,5233
66.159721,88,-9182,-10555,11300,-540,2234,0.007812,0.316406,-1.558594,-0.049999,-0.049999,0.009998,-0.052979,-0.003906,-0.573242,2.807861,-0.042480,0.505371,66150115,-1,0,1,0,-0.000634,0.006415,0.250000,76.923073,5473,-806,238,415,8307,7811,7997,7552,4,-0.014840,-0.069558,0.006376,5278,6003,6082,4527
